Participants,Trial,Grammar,Block,Response,RT,Accuracy
1,1,0,1,n,1178,1
1,2,1,1,x,367,1
1,3,1,1,x,346,1
1,4,0,1,n,370,1
1,5,1,1,n,327,0
1,6,1,1,x,446,1
1,7,0,1,n,342,1
1,8,1,1,x,352,1
1,9,0,1,n,433,1
1,10,1,1,x,398,1
1,11,1,1,x,338,1
1,12,0,1,n,389,1
1,13,1,1,x,368,1
1,14,1,1,x,352,1
1,15,0,1,n,368,1
1,16,1,1,x,368,1
1,17,0,1,n,426,1
1,18,1,1,x,373,1
1,19,1,1,x,356,1
1,20,0,1,n,332,1
1,21,1,1,x,340,1
1,22,0,1,n,410,1
1,23,1,1,x,381,1
1,24,1,1,x,553,1
1,25,0,1,n,331,1
1,26,1,1,x,562,1
1,27,1,1,x,306,1
1,28,0,1,n,334,1
1,29,1,1,x,336,1
1,30,0,1,n,334,1
1,31,1,1,x,335,1
1,32,1,1,x,331,1
1,33,0,1,n,366,1
1,34,1,1,x,313,1
1,35,1,1,x,466,1
1,36,0,1,n,337,1
1,37,1,1,x,347,1
1,38,0,1,n,366,1
1,39,1,1,x,361,1
1,40,1,1,x,348,1
1,41,0,1,n,326,1
1,42,1,1,x,372,1
1,43,0,1,n,326,1
1,44,1,1,x,302,1
1,45,1,1,x,293,1
1,46,0,1,n,284,1
1,47,1,1,x,279,1
1,48,1,1,x,362,1
1,49,0,1,n,221,1
1,50,1,1,x,304,1
1,51,0,1,n,249,1
1,52,1,1,x,106,1
1,53,1,1,x,305,1
1,54,0,1,n,116,1
1,55,1,1,x,178,1
1,56,0,1,x,187,0
1,57,1,1,x,294,1
1,58,1,1,x,289,1
1,59,0,1,n,312,1
1,60,1,1,x,315,1
1,61,1,1,x,379,1
1,62,0,1,n,248,1
1,63,1,1,x,319,1
1,64,0,1,x,304,0
1,65,1,1,x,417,1
1,66,1,1,x,303,1
1,67,0,1,n,332,1
1,68,1,1,x,324,1
1,69,1,1,x,316,1
1,70,0,1,n,286,1
1,71,1,1,x,287,1
1,72,0,1,n,302,1
1,73,1,1,x,327,1
1,74,1,1,x,327,1
1,75,0,1,n,294,1
1,76,1,1,x,275,1
1,77,0,1,n,417,1
1,78,1,1,x,304,1
1,79,1,1,x,277,1
1,80,0,1,n,311,1
1,81,1,1,x,374,1
1,82,1,1,x,287,1
1,83,0,1,n,493,1
1,84,1,1,x,230,1
1,85,0,1,n,381,1
1,86,1,1,x,268,1
1,87,1,1,x,313,1
1,88,0,1,n,320,1
1,89,1,1,x,335,1
1,90,1,1,x,267,1
1,91,0,1,n,429,1
1,92,1,1,x,310,1
1,93,0,1,n,376,1
1,94,1,1,x,283,1
1,95,1,1,x,437,1
1,96,0,1,n,290,1
1,97,1,1,x,352,1
1,98,0,1,n,380,1
1,99,1,1,x,320,1
1,100,1,1,x,278,1
1,101,0,1,n,226,1
1,102,1,1,x,276,1
1,103,1,1,x,284,1
1,104,0,1,n,192,1
1,105,1,1,x,227,1
1,106,0,1,n,207,1
1,107,1,1,x,119,1
1,108,1,1,x,310,1
1,109,0,1,n,147,1
1,110,1,1,x,212,1
1,111,0,1,n,371,1
1,112,1,1,x,183,1
1,113,1,1,x,121,1
1,114,0,1,n,168,1
1,115,1,1,x,186,1
1,116,1,1,x,288,1
1,117,0,1,n,201,1
1,118,1,1,x,200,1
1,119,0,1,n,96,1
1,120,1,1,x,105,1
1,121,1,1,x,59,1
1,122,0,1,n,42,1
1,123,1,1,x,55,1
1,124,1,1,x,211,1
1,125,0,1,n,71,1
1,126,1,1,x,87,1
1,127,0,1,n,231,1
1,128,1,1,x,89,1
1,129,1,1,x,27,1
1,130,0,1,n,45,1
1,131,1,1,x,38,1
1,132,0,1,n,21,1
1,133,1,1,x,463,1
1,134,1,1,x,73,1
1,135,0,1,n,83,1
1,136,1,1,x,99,1
1,137,1,1,x,304,1
1,138,0,1,n,435,1
1,139,1,1,x,225,1
1,140,0,1,n,293,1
1,141,1,1,x,139,1
1,142,1,1,x,91,1
1,143,0,1,n,378,1
1,144,1,1,x,68,1
1,145,0,1,n,300,1
1,146,1,1,x,160,1
1,147,1,1,x,113,1
1,148,0,1,n,38,1
1,149,1,1,x,147,1
1,150,1,1,x,267,1
1,151,0,1,n,123,1
1,152,1,1,x,154,1
1,153,0,1,n,52,1
1,154,1,1,x,123,1
1,155,1,1,x,163,1
1,156,0,1,x,129,0
1,157,1,1,x,139,1
1,158,1,1,n,165,0
1,159,0,1,n,117,1
1,160,1,1,x,90,1
1,161,0,1,x,85,0
1,162,1,1,n,39,0
1,163,1,1,n,758,0
1,164,0,1,n,80,1
1,165,1,1,n,249,0
1,166,0,1,n,91,1
1,167,1,1,x,166,1
1,168,1,1,n,266,0
1,169,0,1,x,373,0
1,170,1,1,x,415,1
1,171,1,1,x,497,1
1,172,0,1,n,366,1
1,173,1,1,x,388,1
1,174,0,1,n,351,1
1,175,1,1,x,462,1
1,176,1,1,x,313,1
1,177,0,1,n,406,1
1,178,1,1,x,286,1
1,179,1,1,x,403,1
1,180,0,1,n,318,1
1,181,1,1,x,339,1
1,182,0,1,x,364,0
1,183,1,1,x,307,1
1,184,1,1,x,324,1
1,185,0,1,n,401,1
1,186,1,1,x,319,1
1,187,0,1,n,174,1
1,188,1,1,x,162,1
1,189,1,1,n,169,0
1,190,0,1,n,238,1
1,191,1,1,x,72,1
1,192,1,1,x,288,1
1,193,0,1,n,134,1
1,194,1,1,x,254,1
1,195,0,1,n,183,1
1,196,1,1,x,74,1
1,197,1,1,x,98,1
1,198,0,1,n,154,1
1,199,1,1,x,109,1
1,200,0,1,n,267,1
1,201,1,1,x,69,1
1,202,1,1,x,47,1
1,203,0,1,n,26,1
1,204,1,1,x,60,1
1,205,1,1,n,164,0
1,206,0,1,n,520,1
1,207,1,1,x,352,1
1,208,0,1,n,291,1
1,209,1,1,x,216,1
1,210,1,1,x,269,1
1,211,0,1,n,79,1
1,212,1,1,x,214,1
1,213,1,1,x,361,1
1,214,0,1,n,74,1
1,215,1,1,x,69,1
1,216,0,1,n,215,1
1,217,1,1,x,34,1
1,218,1,1,x,96,1
1,219,0,1,n,48,1
1,220,1,1,x,46,1
1,221,0,1,n,128,1
1,222,1,1,x,85,1
1,223,1,1,x,67,1
1,224,0,1,n,461,1
1,225,1,1,x,94,1
1,226,1,1,x,133,1
1,227,0,1,n,108,1
1,228,1,1,x,207,1
1,229,0,1,n,113,1
1,230,1,1,x,35,1
1,231,1,1,x,52,1
1,232,0,1,n,391,1
1,233,1,1,x,99,1
1,1,0,2,timeout,1205,timeout
1,2,1,2,timeout,1203,timeout
1,3,1,2,x,406,1
1,4,0,2,n,328,1
1,5,1,2,x,226,1
1,6,1,2,n,243,0
1,7,0,2,x,117,0
1,8,1,2,x,301,1
1,9,0,2,n,306,1
1,10,1,2,x,131,1
1,11,1,2,n,151,0
1,12,0,2,n,157,1
1,13,1,2,x,128,1
1,14,1,2,n,74,0
1,15,0,2,x,51,0
1,16,1,2,x,62,1
1,17,0,2,n,63,1
1,18,1,2,x,71,1
1,19,1,2,x,262,1
1,20,0,2,n,169,1
1,21,1,2,x,332,1
1,22,0,2,x,242,0
1,23,1,2,x,261,1
1,24,1,2,x,345,1
1,25,0,2,n,483,1
1,26,1,2,x,260,1
1,27,1,2,x,577,1
1,28,0,2,n,401,1
1,29,1,2,x,184,1
1,30,0,2,n,360,1
1,31,1,2,x,138,1
1,32,1,2,n,308,0
1,33,0,2,n,358,1
1,34,1,2,x,119,1
1,35,1,2,x,302,1
1,36,0,2,n,121,1
1,37,1,2,x,244,1
1,38,0,2,n,397,1
1,39,1,2,x,264,1
1,40,1,2,x,287,1
1,41,0,2,n,90,1
1,42,1,2,x,245,1
1,43,0,2,n,167,1
1,44,1,2,x,272,1
1,45,1,2,x,296,1
1,46,0,2,n,278,1
1,47,1,2,x,230,1
1,48,1,2,x,311,1
1,49,0,2,n,141,1
1,50,1,2,x,140,1
1,51,0,2,n,263,1
1,52,1,2,x,95,1
1,53,1,2,n,208,0
1,54,0,2,n,146,1
1,55,1,2,x,351,1
1,56,0,2,x,94,0
1,57,1,2,x,96,1
1,58,1,2,x,131,1
1,59,0,2,n,29,1
1,60,1,2,x,32,1
1,61,1,2,n,56,0
1,62,0,2,x,41,0
1,63,1,2,n,529,0
1,64,0,2,x,138,0
1,65,1,2,x,95,1
1,66,1,2,n,58,0
1,67,0,2,n,183,1
1,68,1,2,x,49,1
1,69,1,2,x,360,1
1,70,0,2,n,90,1
1,71,1,2,n,248,0
1,72,0,2,n,610,1
1,73,1,2,x,819,1
1,74,1,2,x,431,1
1,75,0,2,n,701,1
1,76,1,2,x,485,1
1,77,0,2,n,365,1
1,78,1,2,x,365,1
1,79,1,2,x,354,1
1,80,0,2,n,297,1
1,81,1,2,n,236,0
1,82,1,2,n,193,0
1,83,0,2,n,277,1
1,84,1,2,n,19,0
1,85,0,2,n,9,1
1,86,1,2,x,77,1
1,87,1,2,x,60,1
1,88,0,2,n,134,1
1,89,1,2,x,22,1
1,90,1,2,x,51,1
1,91,0,2,n,222,1
1,92,1,2,x,284,1
1,93,0,2,n,285,1
1,94,1,2,x,172,1
1,95,1,2,n,200,0
1,96,0,2,n,134,1
1,97,1,2,x,55,1
1,98,0,2,x,23,0
1,99,1,2,x,5,1
1,100,1,2,x,128,1
1,101,0,2,n,418,1
1,102,1,2,x,324,1
1,103,1,2,n,128,0
1,104,0,2,n,21,1
1,105,1,2,x,57,1
1,106,0,2,x,34,0
1,107,1,2,x,117,1
1,108,1,2,x,244,1
1,109,0,2,n,73,1
1,110,1,2,x,310,1
1,111,0,2,x,236,0
1,112,1,2,x,143,1
1,113,1,2,x,224,1
1,114,0,2,n,498,1
1,115,1,2,x,184,1
1,116,1,2,x,265,1
1,117,0,2,n,123,1
1,118,1,2,x,535,1
1,119,0,2,n,26,1
1,120,1,2,x,266,1
1,121,1,2,n,89,0
1,122,0,2,n,103,1
1,123,1,2,x,402,1
1,124,1,2,x,261,1
1,125,0,2,n,461,1
1,126,1,2,x,256,1
1,127,0,2,n,297,1
1,128,1,2,x,295,1
1,129,1,2,x,228,1
1,130,0,2,n,276,1
1,131,1,2,timeout,1202,timeout
1,132,0,2,x,205,0
1,133,1,2,x,363,1
1,134,1,2,x,404,1
1,135,0,2,n,297,1
1,136,1,2,x,826,1
1,137,1,2,x,335,1
1,138,0,2,n,267,1
1,139,1,2,x,1138,1
1,140,0,2,x,921,0
1,141,1,2,timeout,1203,timeout
1,142,1,2,x,292,1
1,143,0,2,n,294,1
1,144,1,2,x,286,1
1,145,0,2,x,288,0
1,146,1,2,x,362,1
1,147,1,2,x,166,1
1,148,0,2,n,178,1
1,149,1,2,x,280,1
1,150,1,2,x,186,1
1,151,0,2,n,288,1
1,152,1,2,x,289,1
1,153,0,2,n,89,1
1,154,1,2,x,129,1
1,155,1,2,x,89,1
1,156,0,2,n,103,1
1,157,1,2,x,177,1
1,158,1,2,x,156,1
1,159,0,2,n,156,1
1,160,1,2,x,125,1
1,161,0,2,n,131,1
1,162,1,2,x,60,1
1,163,1,2,x,227,1
1,164,0,2,n,154,1
1,165,1,2,x,185,1
1,166,0,2,n,259,1
1,167,1,2,x,203,1
1,168,1,2,x,87,1
1,169,0,2,n,36,1
1,170,1,2,x,173,1
1,171,1,2,x,359,1
1,172,0,2,n,279,1
1,173,1,2,x,150,1
1,174,0,2,n,333,1
1,175,1,2,x,111,1
1,176,1,2,x,65,1
1,177,0,2,n,22,1
1,178,1,2,x,117,1
1,179,1,2,x,367,1
1,180,0,2,n,386,1
1,181,1,2,x,87,1
1,182,0,2,n,361,1
1,183,1,2,x,83,1
1,184,1,2,x,35,1
1,185,0,2,n,72,1
1,186,1,2,x,187,1
1,187,0,2,n,346,1
1,188,1,2,x,309,1
1,189,1,2,x,281,1
1,190,0,2,n,73,1
1,191,1,2,x,106,1
1,192,1,2,x,311,1
1,193,0,2,n,73,1
1,194,1,2,x,326,1
1,195,0,2,n,221,1
1,196,1,2,x,288,1
1,197,1,2,x,218,1
1,198,0,2,n,145,1
1,199,1,2,x,105,1
1,200,0,2,n,642,1
1,201,1,2,x,458,1
1,202,1,2,x,333,1
1,203,0,2,n,205,1
1,204,1,2,x,258,1
1,205,1,2,x,417,1
1,206,0,2,n,118,1
1,207,1,2,x,281,1
1,208,0,2,n,392,1
1,209,1,2,x,657,1
1,210,1,2,x,266,1
1,211,0,2,n,145,1
1,212,1,2,x,221,1
1,213,1,2,x,227,1
1,214,0,2,n,177,1
1,215,1,2,x,267,1
1,216,0,2,n,284,1
1,217,1,2,x,245,1
1,218,1,2,x,67,1
1,219,0,2,n,27,1
1,220,1,2,x,203,1
1,221,0,2,n,329,1
1,222,1,2,x,18,1
1,223,1,2,x,413,1
1,224,0,2,n,100,1
1,225,1,2,x,240,1
1,226,1,2,x,299,1
1,227,0,2,n,148,1
1,228,1,2,x,67,1
1,229,0,2,n,165,1
1,230,1,2,x,33,1
1,231,1,2,x,138,1
1,232,0,2,n,88,1
1,233,1,2,x,78,1
1,1,0,3,n,753,1
1,2,1,3,x,252,1
1,3,1,3,x,284,1
1,4,0,3,n,298,1
1,5,1,3,x,167,1
1,6,1,3,x,278,1
1,7,0,3,n,164,1
1,8,1,3,x,177,1
1,9,0,3,n,324,1
1,10,1,3,x,215,1
1,11,1,3,x,227,1
1,12,0,3,n,64,1
1,13,1,3,x,96,1
1,14,1,3,x,91,1
1,15,0,3,n,36,1
1,16,1,3,x,70,1
1,17,0,3,x,202,0
1,18,1,3,x,280,1
1,19,1,3,x,140,1
1,20,0,3,n,95,1
1,21,1,3,x,141,1
1,22,0,3,x,150,0
1,23,1,3,x,123,1
1,24,1,3,x,90,1
1,25,0,3,n,107,1
1,26,1,3,x,62,1
1,27,1,3,x,220,1
1,28,0,3,n,81,1
1,29,1,3,x,93,1
1,30,0,3,n,28,1
1,31,1,3,x,57,1
1,32,1,3,x,86,1
1,33,0,3,n,246,1
1,34,1,3,x,90,1
1,35,1,3,n,183,0
1,36,0,3,n,72,1
1,37,1,3,x,424,1
1,38,0,3,n,388,1
1,39,1,3,n,425,0
1,40,1,3,x,187,1
1,41,0,3,n,28,1
1,42,1,3,x,186,1
1,43,0,3,n,299,1
1,44,1,3,x,133,1
1,45,1,3,x,87,1
1,46,0,3,n,129,1
1,47,1,3,x,138,1
1,48,1,3,x,370,1
1,49,0,3,n,152,1
1,50,1,3,x,93,1
1,51,0,3,n,368,1
1,52,1,3,x,83,1
1,53,1,3,x,68,1
1,54,0,3,n,88,1
1,55,1,3,x,83,1
1,56,0,3,n,342,1
1,57,1,3,x,173,1
1,58,1,3,x,93,1
1,59,0,3,n,56,1
1,60,1,3,x,115,1
1,61,1,3,x,158,1
1,62,0,3,n,106,1
1,63,1,3,x,118,1
1,64,0,3,n,25,1
1,65,1,3,x,115,1
1,66,1,3,x,148,1
1,67,0,3,n,56,1
1,68,1,3,x,79,1
1,69,1,3,n,64,0
1,70,0,3,n,311,1
1,71,1,3,x,76,1
1,72,0,3,n,338,1
1,73,1,3,x,98,1
1,74,1,3,x,215,1
1,75,0,3,n,101,1
1,76,1,3,x,104,1
1,77,0,3,n,331,1
1,78,1,3,x,122,1
1,79,1,3,x,73,1
1,80,0,3,n,10,1
1,81,1,3,x,393,1
1,82,1,3,x,96,1
1,83,0,3,n,21,1
1,84,1,3,x,80,1
1,85,0,3,n,368,1
1,86,1,3,x,144,1
1,87,1,3,x,352,1
1,88,0,3,n,22,1
1,89,1,3,x,185,1
1,90,1,3,n,215,0
1,91,0,3,n,50,1
1,92,1,3,x,271,1
1,93,0,3,n,268,1
1,94,1,3,x,325,1
1,95,1,3,x,292,1
1,96,0,3,n,88,1
1,97,1,3,x,184,1
1,98,0,3,n,305,1
1,99,1,3,x,197,1
1,100,1,3,x,81,1
1,101,0,3,n,35,1
1,102,1,3,x,104,1
1,103,1,3,x,79,1
1,104,0,3,n,28,1
1,105,1,3,x,101,1
1,106,0,3,n,21,1
1,107,1,3,x,84,1
1,108,1,3,x,116,1
1,109,0,3,n,41,1
1,110,1,3,x,92,1
1,111,0,3,n,293,1
1,112,1,3,x,136,1
1,113,1,3,x,84,1
1,114,0,3,n,66,1
1,115,1,3,x,70,1
1,116,1,3,x,221,1
1,117,0,3,n,41,1
1,118,1,3,x,452,1
1,119,0,3,n,19,1
1,120,1,3,x,74,1
1,121,1,3,x,122,1
1,122,0,3,n,61,1
1,123,1,3,x,51,1
1,124,1,3,x,353,1
1,125,0,3,n,90,1
1,126,1,3,x,116,1
1,127,0,3,n,111,1
1,128,1,3,x,78,1
1,129,1,3,x,78,1
1,130,0,3,n,63,1
1,131,1,3,x,55,1
1,132,0,3,n,67,1
1,133,1,3,x,107,1
1,134,1,3,x,93,1
1,135,0,3,n,35,1
1,136,1,3,x,41,1
1,137,1,3,x,52,1
1,138,0,3,n,412,1
1,139,1,3,x,17,1
1,140,0,3,x,131,0
1,141,1,3,x,287,1
1,142,1,3,n,363,0
1,143,0,3,n,433,1
1,144,1,3,x,335,1
1,145,0,3,n,399,1
1,146,1,3,x,264,1
1,147,1,3,x,207,1
1,148,0,3,n,27,1
1,149,1,3,x,82,1
1,150,1,3,x,263,1
1,151,0,3,n,40,1
1,152,1,3,x,120,1
1,153,0,3,n,74,1
1,154,1,3,x,51,1
1,155,1,3,x,245,1
1,156,0,3,n,82,1
1,157,1,3,x,160,1
1,158,1,3,n,207,0
1,159,0,3,n,42,1
1,160,1,3,x,222,1
1,161,0,3,n,349,1
1,162,1,3,x,130,1
1,163,1,3,x,110,1
1,164,0,3,n,42,1
1,165,1,3,x,173,1
1,166,0,3,n,323,1
1,167,1,3,x,135,1
1,168,1,3,x,80,1
1,169,0,3,n,36,1
1,170,1,3,x,217,1
1,171,1,3,n,283,0
1,172,0,3,n,58,1
1,173,1,3,x,260,1
1,174,0,3,n,379,1
1,175,1,3,x,203,1
1,176,1,3,x,88,1
1,177,0,3,n,99,1
1,178,1,3,x,118,1
1,179,1,3,x,172,1
1,180,0,3,n,52,1
1,181,1,3,x,110,1
1,182,0,3,n,38,1
1,183,1,3,x,100,1
1,184,1,3,x,304,1
1,185,0,3,n,83,1
1,186,1,3,x,116,1
1,187,0,3,n,275,1
1,188,1,3,x,223,1
1,189,1,3,x,160,1
1,190,0,3,n,121,1
1,191,1,3,x,71,1
1,192,1,3,x,300,1
1,193,0,3,n,93,1
1,194,1,3,x,55,1
1,195,0,3,n,55,1
1,196,1,3,x,98,1
1,197,1,3,x,140,1
1,198,0,3,n,48,1
1,199,1,3,x,112,1
1,200,0,3,n,283,1
1,201,1,3,x,51,1
1,202,1,3,x,161,1
1,203,0,3,n,15,1
1,204,1,3,x,117,1
1,205,1,3,x,71,1
1,206,0,3,n,35,1
1,207,1,3,x,69,1
1,208,0,3,n,251,1
1,209,1,3,x,52,1
1,210,1,3,n,160,0
1,211,0,3,n,401,1
1,212,1,3,x,113,1
1,213,1,3,x,147,1
1,214,0,3,n,76,1
1,215,1,3,x,49,1
1,216,0,3,n,132,1
1,217,1,3,x,235,1
1,218,1,3,x,204,1
1,219,0,3,n,82,1
1,220,1,3,x,104,1
1,221,0,3,n,394,1
1,222,1,3,x,151,1
1,223,1,3,x,65,1
1,224,0,3,n,36,1
1,225,1,3,x,52,1
1,226,1,3,x,262,1
1,227,0,3,n,59,1
1,228,1,3,x,44,1
1,229,0,3,n,86,1
1,230,1,3,x,79,1
1,231,1,3,x,103,1
1,232,0,3,n,49,1
1,233,1,3,x,18,1
1,1,0,4,n,423,1
1,2,1,4,x,322,1
1,3,1,4,x,120,1
1,4,0,4,n,14,1
1,5,1,4,x,316,1
1,6,1,4,x,267,1
1,7,0,4,n,117,1
1,8,1,4,x,149,1
1,9,0,4,x,124,0
1,10,1,4,x,90,1
1,11,1,4,x,90,1
1,12,0,4,n,52,1
1,13,1,4,x,59,1
1,14,1,4,x,231,1
1,15,0,4,n,77,1
1,16,1,4,x,34,1
1,17,0,4,n,9,1
1,18,1,4,x,51,1
1,19,1,4,x,307,1
1,20,0,4,n,211,1
1,21,1,4,x,177,1
1,22,0,4,n,363,1
1,23,1,4,x,341,1
1,24,1,4,n,260,0
1,25,0,4,n,16,1
1,26,1,4,x,443,1
1,27,1,4,n,330,0
1,28,0,4,n,428,1
1,29,1,4,x,406,1
1,30,0,4,n,329,1
1,31,1,4,n,512,0
1,32,1,4,n,239,0
1,33,0,4,n,79,1
1,34,1,4,x,268,1
1,35,1,4,x,331,1
1,36,0,4,n,434,1
1,37,1,4,x,308,1
1,38,0,4,x,344,0
1,39,1,4,x,399,1
1,40,1,4,x,314,1
1,41,0,4,n,296,1
1,42,1,4,x,276,1
1,43,0,4,n,327,1
1,44,1,4,x,371,1
1,45,1,4,x,221,1
1,46,0,4,n,191,1
1,47,1,4,x,388,1
1,48,1,4,x,308,1
1,49,0,4,n,97,1
1,50,1,4,x,250,1
1,51,0,4,n,262,1
1,52,1,4,x,211,1
1,53,1,4,x,191,1
1,54,0,4,n,268,1
1,55,1,4,x,304,1
1,56,0,4,n,436,1
1,57,1,4,x,380,1
1,58,1,4,x,286,1
1,59,0,4,n,267,1
1,60,1,4,x,285,1
1,61,1,4,x,347,1
1,62,0,4,n,161,1
1,63,1,4,x,174,1
1,64,0,4,n,237,1
1,65,1,4,x,76,1
1,66,1,4,x,103,1
1,67,0,4,n,43,1
1,68,1,4,x,45,1
1,69,1,4,x,107,1
1,70,0,4,n,55,1
1,71,1,4,x,89,1
1,72,0,4,n,196,1
1,73,1,4,x,71,1
1,74,1,4,x,449,1
1,75,0,4,n,308,1
1,76,1,4,x,188,1
1,77,0,4,n,317,1
1,78,1,4,x,182,1
1,79,1,4,x,385,1
1,80,0,4,n,284,1
1,81,1,4,x,172,1
1,82,1,4,x,44,1
1,83,0,4,n,160,1
1,84,1,4,x,45,1
1,85,0,4,n,361,1
1,86,1,4,x,57,1
1,87,1,4,x,125,1
1,88,0,4,n,79,1
1,89,1,4,x,22,1
1,90,1,4,x,272,1
1,91,0,4,n,110,1
1,92,1,4,x,156,1
1,93,0,4,n,93,1
1,94,1,4,x,14,1
1,95,1,4,x,325,1
1,96,0,4,n,173,1
1,97,1,4,x,166,1
1,98,0,4,x,131,0
1,99,1,4,x,96,1
1,100,1,4,x,123,1
1,101,0,4,n,35,1
1,102,1,4,x,150,1
1,103,1,4,n,146,0
1,104,0,4,n,22,1
1,105,1,4,x,73,1
1,106,0,4,n,341,1
1,107,1,4,x,85,1
1,108,1,4,x,86,1
1,109,0,4,n,91,1
1,110,1,4,x,117,1
1,111,0,4,x,229,0
1,112,1,4,x,134,1
1,113,1,4,x,345,1
1,114,0,4,n,76,1
1,115,1,4,x,179,1
1,116,1,4,x,572,1
1,117,0,4,n,210,1
1,118,1,4,x,212,1
1,119,0,4,n,409,1
1,120,1,4,x,160,1
1,121,1,4,x,229,1
1,122,0,4,n,280,1
1,123,1,4,x,179,1
1,124,1,4,n,182,0
1,125,0,4,n,36,1
1,126,1,4,x,150,1
1,127,0,4,n,285,1
1,128,1,4,x,130,1
1,129,1,4,x,186,1
1,130,0,4,n,123,1
1,131,1,4,x,173,1
1,132,0,4,n,354,1
1,133,1,4,x,387,1
1,134,1,4,x,137,1
1,135,0,4,n,81,1
1,136,1,4,x,208,1
1,137,1,4,x,376,1
1,138,0,4,n,319,1
1,139,1,4,x,70,1
1,140,0,4,n,496,1
1,141,1,4,x,230,1
1,142,1,4,x,304,1
1,143,0,4,n,229,1
1,144,1,4,x,354,1
1,145,0,4,n,390,1
1,146,1,4,x,392,1
1,147,1,4,x,276,1
1,148,0,4,n,110,1
1,149,1,4,x,215,1
1,150,1,4,x,343,1
1,151,0,4,n,138,1
1,152,1,4,x,215,1
1,153,0,4,n,369,1
1,154,1,4,x,364,1
1,155,1,4,x,142,1
1,156,0,4,n,140,1
1,157,1,4,x,293,1
1,158,1,4,x,266,1
1,159,0,4,n,147,1
1,160,1,4,x,148,1
1,161,0,4,n,174,1
1,162,1,4,x,187,1
1,163,1,4,x,315,1
1,164,0,4,n,269,1
1,165,1,4,x,139,1
1,166,0,4,n,403,1
1,167,1,4,x,272,1
1,168,1,4,x,250,1
1,169,0,4,n,118,1
1,170,1,4,x,182,1
1,171,1,4,x,281,1
1,172,0,4,n,104,1
1,173,1,4,x,74,1
1,174,0,4,n,352,1
1,175,1,4,x,153,1
1,176,1,4,x,286,1
1,177,0,4,n,140,1
1,178,1,4,x,167,1
1,179,1,4,x,313,1
1,180,0,4,n,273,1
1,181,1,4,x,201,1
1,182,0,4,n,337,1
1,183,1,4,x,154,1
1,184,1,4,x,323,1
1,185,0,4,n,200,1
1,186,1,4,x,140,1
1,187,0,4,n,111,1
1,188,1,4,x,12,1
1,189,1,4,x,184,1
1,190,0,4,n,93,1
1,191,1,4,x,76,1
1,192,1,4,x,118,1
1,193,0,4,n,93,1
1,194,1,4,x,102,1
1,195,0,4,n,41,1
1,196,1,4,x,65,1
1,197,1,4,x,191,1
1,198,0,4,n,37,1
1,199,1,4,x,42,1
1,200,0,4,n,68,1
1,201,1,4,x,78,1
1,202,1,4,x,100,1
1,203,0,4,n,425,1
1,204,1,4,x,131,1
1,205,1,4,x,83,1
1,206,0,4,n,126,1
1,207,1,4,x,92,1
1,208,0,4,n,24,1
1,209,1,4,x,107,1
1,210,1,4,x,210,1
1,211,0,4,x,165,0
1,212,1,4,x,128,1
1,213,1,4,x,310,1
1,214,0,4,n,17,1
1,215,1,4,x,120,1
1,216,0,4,x,140,0
1,217,1,4,x,95,1
1,218,1,4,x,25,1
1,219,0,4,n,19,1
1,220,1,4,x,68,1
1,221,0,4,x,47,0
1,222,1,4,x,168,1
1,223,1,4,x,113,1
1,224,0,4,n,127,1
1,225,1,4,x,183,1
1,226,1,4,x,90,1
1,227,0,4,n,113,1
1,228,1,4,x,224,1
1,229,0,4,n,379,1
1,230,1,4,x,368,1
1,231,1,4,x,129,1
1,232,0,4,n,86,1
1,233,1,4,x,72,1
1,1,0,5,x,36,0
1,2,1,5,timeout,1206,timeout
1,3,1,5,x,282,1
1,4,0,5,n,184,1
1,5,1,5,x,200,1
1,6,1,5,x,159,1
1,7,0,5,n,231,1
1,8,1,5,x,230,1
1,9,0,5,n,352,1
1,10,1,5,x,376,1
1,11,1,5,x,268,1
1,12,0,5,n,223,1
1,13,1,5,x,364,1
1,14,1,5,x,357,1
1,15,0,5,n,400,1
1,16,1,5,x,346,1
1,17,0,5,x,259,0
1,18,1,5,x,320,1
1,19,1,5,x,198,1
1,20,0,5,n,83,1
1,21,1,5,x,304,1
1,22,0,5,n,287,1
1,23,1,5,x,177,1
1,24,1,5,x,312,1
1,25,0,5,n,122,1
1,26,1,5,x,297,1
1,27,1,5,x,328,1
1,28,0,5,n,356,1
1,29,1,5,x,334,1
1,30,0,5,n,270,1
1,31,1,5,x,375,1
1,32,1,5,x,152,1
1,33,0,5,n,101,1
1,34,1,5,x,151,1
1,35,1,5,x,286,1
1,36,0,5,n,174,1
1,37,1,5,x,323,1
1,38,0,5,n,84,1
1,39,1,5,x,86,1
1,40,1,5,x,241,1
1,41,0,5,n,177,1
1,42,1,5,x,79,1
1,43,0,5,n,98,1
1,44,1,5,x,95,1
1,45,1,5,x,124,1
1,46,0,5,n,138,1
1,47,1,5,x,89,1
1,48,1,5,x,84,1
1,49,0,5,n,12,1
1,50,1,5,x,60,1
1,51,0,5,n,29,1
1,52,1,5,x,38,1
1,53,1,5,x,225,1
1,54,0,5,n,31,1
1,55,1,5,x,23,1
1,56,0,5,n,26,1
1,57,1,5,x,86,1
1,58,1,5,x,100,1
1,59,0,5,n,423,1
1,60,1,5,x,18,1
1,61,1,5,x,40,1
1,62,0,5,n,70,1
1,63,1,5,x,35,1
1,64,0,5,n,48,1
1,65,1,5,x,60,1
1,66,1,5,x,293,1
1,67,0,5,n,18,1
1,68,1,5,x,36,1
1,69,1,5,x,409,1
1,70,0,5,n,396,1
1,71,1,5,x,99,1
1,72,0,5,x,113,0
1,73,1,5,x,120,1
1,74,1,5,x,67,1
1,75,0,5,n,48,1
1,76,1,5,x,147,1
1,77,0,5,x,171,0
1,78,1,5,x,87,1
1,79,1,5,x,143,1
1,80,0,5,n,58,1
1,81,1,5,x,142,1
1,82,1,5,x,312,1
1,83,0,5,n,64,1
1,84,1,5,x,35,1
1,85,0,5,x,201,0
1,86,1,5,x,82,1
1,87,1,5,x,250,1
1,88,0,5,n,42,1
1,89,1,5,x,91,1
1,90,1,5,x,358,1
1,91,0,5,n,103,1
1,92,1,5,x,74,1
1,93,0,5,n,115,1
1,94,1,5,x,84,1
1,95,1,5,x,334,1
1,96,0,5,n,105,1
1,97,1,5,x,236,1
1,98,0,5,n,338,1
1,99,1,5,x,138,1
1,100,1,5,x,330,1
1,101,0,5,n,123,1
1,102,1,5,x,259,1
1,103,1,5,x,240,1
1,104,0,5,n,57,1
1,105,1,5,x,153,1
1,106,0,5,n,379,1
1,107,1,5,x,424,1
1,108,1,5,x,295,1
1,109,0,5,n,86,1
1,110,1,5,x,50,1
1,111,0,5,n,314,1
1,112,1,5,x,117,1
1,113,1,5,x,279,1
1,114,0,5,n,96,1
1,115,1,5,x,75,1
1,116,1,5,n,95,0
1,117,0,5,n,89,1
1,118,1,5,x,40,1
1,119,0,5,n,317,1
1,120,1,5,x,76,1
1,121,1,5,x,75,1
1,122,0,5,n,102,1
1,123,1,5,x,141,1
1,124,1,5,x,351,1
1,125,0,5,n,84,1
1,126,1,5,x,54,1
1,127,0,5,n,88,1
1,128,1,5,x,24,1
1,129,1,5,x,133,1
1,130,0,5,n,97,1
1,131,1,5,x,108,1
1,132,0,5,x,133,0
1,133,1,5,x,110,1
1,134,1,5,x,166,1
1,135,0,5,n,295,1
1,136,1,5,x,178,1
1,137,1,5,x,239,1
1,138,0,5,n,126,1
1,139,1,5,x,145,1
1,140,0,5,n,277,1
1,141,1,5,x,136,1
1,142,1,5,x,322,1
1,143,0,5,n,313,1
1,144,1,5,x,263,1
1,145,0,5,n,374,1
1,146,1,5,x,175,1
1,147,1,5,x,313,1
1,148,0,5,n,247,1
1,149,1,5,x,292,1
1,150,1,5,x,415,1
1,151,0,5,n,318,1
1,152,1,5,x,147,1
1,153,0,5,n,338,1
1,154,1,5,x,273,1
1,155,1,5,x,316,1
1,156,0,5,n,291,1
1,157,1,5,x,342,1
1,158,1,5,x,327,1
1,159,0,5,n,103,1
1,160,1,5,x,116,1
1,161,0,5,n,171,1
1,162,1,5,x,240,1
1,163,1,5,x,245,1
1,164,0,5,n,123,1
1,165,1,5,x,130,1
1,166,0,5,n,131,1
1,167,1,5,x,143,1
1,168,1,5,x,185,1
1,169,0,5,n,79,1
1,170,1,5,x,85,1
1,171,1,5,x,170,1
1,172,0,5,n,85,1
1,173,1,5,x,109,1
1,174,0,5,n,128,1
1,175,1,5,x,74,1
1,176,1,5,n,138,0
1,177,0,5,x,216,0
1,178,1,5,x,265,1
1,179,1,5,x,182,1
1,180,0,5,n,145,1
1,181,1,5,x,128,1
1,182,0,5,n,274,1
1,183,1,5,x,126,1
1,184,1,5,n,126,0
1,185,0,5,x,232,0
1,186,1,5,x,168,1
1,187,0,5,n,470,1
1,188,1,5,x,163,1
1,189,1,5,x,316,1
1,190,0,5,n,257,1
1,191,1,5,x,161,1
1,192,1,5,x,296,1
1,193,0,5,n,110,1
1,194,1,5,x,124,1
1,195,0,5,n,378,1
1,196,1,5,x,156,1
1,197,1,5,x,333,1
1,198,0,5,n,104,1
1,199,1,5,x,201,1
1,200,0,5,n,89,1
1,201,1,5,x,134,1
1,202,1,5,x,159,1
1,203,0,5,n,112,1
1,204,1,5,x,178,1
1,205,1,5,n,157,0
1,206,0,5,n,264,1
1,207,1,5,x,111,1
1,208,0,5,n,338,1
1,209,1,5,x,98,1
1,210,1,5,x,289,1
1,211,0,5,n,142,1
1,212,1,5,x,156,1
1,213,1,5,x,292,1
1,214,0,5,n,96,1
1,215,1,5,x,116,1
1,216,0,5,n,404,1
1,217,1,5,x,92,1
1,218,1,5,x,333,1
1,219,0,5,n,105,1
1,220,1,5,x,139,1
1,221,0,5,n,381,1
1,222,1,5,x,193,1
1,223,1,5,x,293,1
1,224,0,5,n,367,1
1,225,1,5,x,372,1
1,226,1,5,x,249,1
1,227,0,5,n,168,1
1,228,1,5,x,340,1
1,229,0,5,n,329,1
1,230,1,5,x,107,1
1,231,1,5,x,290,1
1,232,0,5,n,199,1
1,233,1,5,x,249,1
2,1,0,1,n,476,1
2,2,1,1,x,401,1
2,3,1,1,x,405,1
2,4,0,1,n,426,1
2,5,1,1,x,441,1
2,6,1,1,x,377,1
2,7,0,1,n,426,1
2,8,1,1,x,405,1
2,9,0,1,n,431,1
2,10,1,1,x,431,1
2,11,1,1,x,358,1
2,12,0,1,n,378,1
2,13,1,1,x,409,1
2,14,1,1,x,359,1
2,15,0,1,n,487,1
2,16,1,1,x,432,1
2,17,0,1,n,386,1
2,18,1,1,x,520,1
2,19,1,1,x,369,1
2,20,0,1,n,508,1
2,21,1,1,x,432,1
2,22,0,1,n,388,1
2,23,1,1,x,457,1
2,24,1,1,x,419,1
2,25,0,1,n,387,1
2,26,1,1,x,383,1
2,27,1,1,x,356,1
2,28,0,1,n,410,1
2,29,1,1,x,369,1
2,30,0,1,n,339,1
2,31,1,1,x,378,1
2,32,1,1,x,417,1
2,33,0,1,n,333,1
2,34,1,1,x,338,1
2,35,1,1,x,542,1
2,36,0,1,n,386,1
2,37,1,1,x,363,1
2,38,0,1,n,356,1
2,39,1,1,x,433,1
2,40,1,1,x,406,1
2,41,0,1,n,375,1
2,42,1,1,x,358,1
2,43,0,1,n,411,1
2,44,1,1,x,338,1
2,45,1,1,x,381,1
2,46,0,1,n,388,1
2,47,1,1,x,386,1
2,48,1,1,x,322,1
2,49,0,1,n,361,1
2,50,1,1,x,360,1
2,51,0,1,n,440,1
2,52,1,1,x,339,1
2,53,1,1,x,374,1
2,54,0,1,n,401,1
2,55,1,1,x,430,1
2,56,0,1,n,532,1
2,57,1,1,x,446,1
2,58,1,1,x,349,1
2,59,0,1,n,354,1
2,60,1,1,x,319,1
2,61,1,1,x,333,1
2,62,0,1,n,352,1
2,63,1,1,x,335,1
2,64,0,1,n,361,1
2,65,1,1,x,445,1
2,66,1,1,x,289,1
2,67,0,1,n,370,1
2,68,1,1,x,487,1
2,69,1,1,x,293,1
2,70,0,1,n,320,1
2,71,1,1,x,315,1
2,72,0,1,n,381,1
2,73,1,1,x,327,1
2,74,1,1,x,370,1
2,75,0,1,n,370,1
2,76,1,1,x,424,1
2,77,0,1,n,402,1
2,78,1,1,x,344,1
2,79,1,1,x,342,1
2,80,0,1,n,304,1
2,81,1,1,x,352,1
2,82,1,1,x,356,1
2,83,0,1,n,300,1
2,84,1,1,x,335,1
2,85,0,1,n,392,1
2,86,1,1,x,304,1
2,87,1,1,x,275,1
2,88,0,1,n,411,1
2,89,1,1,x,315,1
2,90,1,1,x,312,1
2,91,0,1,n,317,1
2,92,1,1,x,334,1
2,93,0,1,n,266,1
2,94,1,1,x,285,1
2,95,1,1,x,243,1
2,96,0,1,n,290,1
2,97,1,1,x,273,1
2,98,0,1,n,241,1
2,99,1,1,x,273,1
2,100,1,1,x,225,1
2,101,0,1,n,208,1
2,102,1,1,x,258,1
2,103,1,1,x,455,1
2,104,0,1,n,316,1
2,105,1,1,x,430,1
2,106,0,1,n,328,1
2,107,1,1,x,237,1
2,108,1,1,x,261,1
2,109,0,1,n,216,1
2,110,1,1,x,248,1
2,111,0,1,n,377,1
2,112,1,1,x,243,1
2,113,1,1,x,278,1
2,114,0,1,n,218,1
2,115,1,1,x,264,1
2,116,1,1,x,327,1
2,117,0,1,n,224,1
2,118,1,1,x,246,1
2,119,0,1,n,293,1
2,120,1,1,x,256,1
2,121,1,1,x,259,1
2,122,0,1,n,238,1
2,123,1,1,x,272,1
2,124,1,1,x,269,1
2,125,0,1,n,245,1
2,126,1,1,x,250,1
2,127,0,1,x,269,0
2,128,1,1,x,486,1
2,129,1,1,n,309,0
2,130,0,1,x,388,0
2,131,1,1,x,351,1
2,132,0,1,n,340,1
2,133,1,1,x,319,1
2,134,1,1,x,363,1
2,135,0,1,n,393,1
2,136,1,1,x,276,1
2,137,1,1,x,261,1
2,138,0,1,n,266,1
2,139,1,1,x,287,1
2,140,0,1,n,424,1
2,141,1,1,x,291,1
2,142,1,1,x,347,1
2,143,0,1,n,223,1
2,144,1,1,x,261,1
2,145,0,1,n,365,1
2,146,1,1,x,393,1
2,147,1,1,x,429,1
2,148,0,1,n,374,1
2,149,1,1,x,335,1
2,150,1,1,x,316,1
2,151,0,1,n,315,1
2,152,1,1,x,275,1
2,153,0,1,n,502,1
2,154,1,1,x,296,1
2,155,1,1,x,364,1
2,156,0,1,n,266,1
2,157,1,1,x,304,1
2,158,1,1,x,346,1
2,159,0,1,n,271,1
2,160,1,1,x,267,1
2,161,0,1,n,389,1
2,162,1,1,x,282,1
2,163,1,1,x,306,1
2,164,0,1,n,167,1
2,165,1,1,x,268,1
2,166,0,1,n,368,1
2,167,1,1,x,262,1
2,168,1,1,x,268,1
2,169,0,1,n,301,1
2,170,1,1,x,261,1
2,171,1,1,x,333,1
2,172,0,1,n,180,1
2,173,1,1,x,165,1
2,174,0,1,x,355,0
2,175,1,1,x,309,1
2,176,1,1,x,330,1
2,177,0,1,n,247,1
2,178,1,1,x,308,1
2,179,1,1,x,349,1
2,180,0,1,n,288,1
2,181,1,1,x,245,1
2,182,0,1,n,396,1
2,183,1,1,x,277,1
2,184,1,1,x,350,1
2,185,0,1,n,216,1
2,186,1,1,x,292,1
2,187,0,1,n,324,1
2,188,1,1,x,284,1
2,189,1,1,x,255,1
2,190,0,1,n,168,1
2,191,1,1,x,301,1
2,192,1,1,x,338,1
2,193,0,1,n,172,1
2,194,1,1,x,316,1
2,195,0,1,n,370,1
2,196,1,1,x,107,1
2,197,1,1,x,397,1
2,198,0,1,n,230,1
2,199,1,1,x,291,1
2,200,0,1,n,402,1
2,201,1,1,x,468,1
2,202,1,1,x,338,1
2,203,0,1,n,286,1
2,204,1,1,x,298,1
2,205,1,1,x,355,1
2,206,0,1,n,260,1
2,207,1,1,x,370,1
2,208,0,1,n,356,1
2,209,1,1,x,424,1
2,210,1,1,x,410,1
2,211,0,1,n,392,1
2,212,1,1,x,268,1
2,213,1,1,x,330,1
2,214,0,1,n,236,1
2,215,1,1,x,266,1
2,216,0,1,n,301,1
2,217,1,1,x,151,1
2,218,1,1,x,305,1
2,219,0,1,n,257,1
2,220,1,1,x,292,1
2,221,0,1,n,348,1
2,222,1,1,x,251,1
2,223,1,1,x,584,1
2,224,0,1,n,254,1
2,225,1,1,x,271,1
2,226,1,1,x,436,1
2,227,0,1,n,282,1
2,228,1,1,x,245,1
2,229,0,1,n,482,1
2,230,1,1,x,276,1
2,231,1,1,x,384,1
2,232,0,1,n,216,1
2,233,1,1,x,197,1
2,1,0,2,timeout,1203,timeout
2,2,1,2,x,462,1
2,3,1,2,x,358,1
2,4,0,2,n,388,1
2,5,1,2,x,486,1
2,6,1,2,x,420,1
2,7,0,2,n,280,1
2,8,1,2,x,312,1
2,9,0,2,n,349,1
2,10,1,2,x,277,1
2,11,1,2,x,313,1
2,12,0,2,n,379,1
2,13,1,2,x,293,1
2,14,1,2,x,238,1
2,15,0,2,n,169,1
2,16,1,2,x,246,1
2,17,0,2,n,261,1
2,18,1,2,x,264,1
2,19,1,2,x,283,1
2,20,0,2,n,128,1
2,21,1,2,x,179,1
2,22,0,2,n,332,1
2,23,1,2,x,321,1
2,24,1,2,x,291,1
2,25,0,2,n,231,1
2,26,1,2,x,320,1
2,27,1,2,x,389,1
2,28,0,2,n,287,1
2,29,1,2,x,293,1
2,30,0,2,n,401,1
2,31,1,2,x,270,1
2,32,1,2,x,564,1
2,33,0,2,n,313,1
2,34,1,2,x,321,1
2,35,1,2,x,297,1
2,36,0,2,n,236,1
2,37,1,2,x,294,1
2,38,0,2,n,335,1
2,39,1,2,x,306,1
2,40,1,2,x,341,1
2,41,0,2,n,242,1
2,42,1,2,x,307,1
2,43,0,2,n,360,1
2,44,1,2,x,253,1
2,45,1,2,x,447,1
2,46,0,2,n,269,1
2,47,1,2,x,260,1
2,48,1,2,x,383,1
2,49,0,2,n,77,1
2,50,1,2,x,275,1
2,51,0,2,n,375,1
2,52,1,2,x,112,1
2,53,1,2,x,311,1
2,54,0,2,n,227,1
2,55,1,2,x,567,1
2,56,0,2,n,342,1
2,57,1,2,x,185,1
2,58,1,2,x,357,1
2,59,0,2,n,228,1
2,60,1,2,x,314,1
2,61,1,2,x,336,1
2,62,0,2,n,58,1
2,63,1,2,x,367,1
2,64,0,2,n,369,1
2,65,1,2,x,272,1
2,66,1,2,x,294,1
2,67,0,2,n,492,1
2,68,1,2,x,454,1
2,69,1,2,x,353,1
2,70,0,2,n,95,1
2,71,1,2,x,383,1
2,72,0,2,n,417,1
2,73,1,2,x,256,1
2,74,1,2,x,323,1
2,75,0,2,n,348,1
2,76,1,2,x,226,1
2,77,0,2,n,393,1
2,78,1,2,x,138,1
2,79,1,2,x,390,1
2,80,0,2,n,174,1
2,81,1,2,x,296,1
2,82,1,2,x,404,1
2,83,0,2,n,205,1
2,84,1,2,x,273,1
2,85,0,2,x,224,0
2,86,1,2,x,373,1
2,87,1,2,x,386,1
2,88,0,2,n,199,1
2,89,1,2,x,151,1
2,90,1,2,x,328,1
2,91,0,2,n,211,1
2,92,1,2,x,268,1
2,93,0,2,n,345,1
2,94,1,2,x,75,1
2,95,1,2,x,275,1
2,96,0,2,n,146,1
2,97,1,2,x,269,1
2,98,0,2,n,378,1
2,99,1,2,x,347,1
2,100,1,2,x,327,1
2,101,0,2,n,273,1
2,102,1,2,x,347,1
2,103,1,2,x,369,1
2,104,0,2,n,28,1
2,105,1,2,x,316,1
2,106,0,2,n,413,1
2,107,1,2,x,352,1
2,108,1,2,x,412,1
2,109,0,2,n,215,1
2,110,1,2,x,310,1
2,111,0,2,n,270,1
2,112,1,2,x,269,1
2,113,1,2,x,265,1
2,114,0,2,n,234,1
2,115,1,2,x,369,1
2,116,1,2,x,397,1
2,117,0,2,n,255,1
2,118,1,2,x,271,1
2,119,0,2,n,342,1
2,120,1,2,x,243,1
2,121,1,2,x,350,1
2,122,0,2,n,48,1
2,123,1,2,x,251,1
2,124,1,2,x,280,1
2,125,0,2,n,439,1
2,126,1,2,x,301,1
2,127,0,2,n,314,1
2,128,1,2,x,269,1
2,129,1,2,x,140,1
2,130,0,2,n,87,1
2,131,1,2,x,384,1
2,132,0,2,n,261,1
2,133,1,2,x,261,1
2,134,1,2,x,294,1
2,135,0,2,n,69,1
2,136,1,2,x,261,1
2,137,1,2,x,254,1
2,138,0,2,n,170,1
2,139,1,2,x,244,1
2,140,0,2,n,393,1
2,141,1,2,x,280,1
2,142,1,2,x,243,1
2,143,0,2,n,105,1
2,144,1,2,x,293,1
2,145,0,2,n,330,1
2,146,1,2,x,217,1
2,147,1,2,x,101,1
2,148,0,2,n,99,1
2,149,1,2,x,300,1
2,150,1,2,x,289,1
2,151,0,2,n,48,1
2,152,1,2,x,299,1
2,153,0,2,n,284,1
2,154,1,2,x,256,1
2,155,1,2,x,357,1
2,156,0,2,n,136,1
2,157,1,2,x,239,1
2,158,1,2,x,255,1
2,159,0,2,n,59,1
2,160,1,2,x,301,1
2,161,0,2,n,228,1
2,162,1,2,x,168,1
2,163,1,2,x,253,1
2,164,0,2,n,99,1
2,165,1,2,x,264,1
2,166,0,2,n,364,1
2,167,1,2,x,232,1
2,168,1,2,x,285,1
2,169,0,2,n,100,1
2,170,1,2,x,296,1
2,171,1,2,x,356,1
2,172,0,2,n,125,1
2,173,1,2,x,284,1
2,174,0,2,n,345,1
2,175,1,2,x,73,1
2,176,1,2,x,144,1
2,177,0,2,n,379,1
2,178,1,2,x,265,1
2,179,1,2,x,325,1
2,180,0,2,n,103,1
2,181,1,2,x,175,1
2,182,0,2,n,389,1
2,183,1,2,x,178,1
2,184,1,2,x,168,1
2,185,0,2,n,114,1
2,186,1,2,x,341,1
2,187,0,2,n,243,1
2,188,1,2,x,117,1
2,189,1,2,x,279,1
2,190,0,2,n,18,1
2,191,1,2,x,159,1
2,192,1,2,n,247,0
2,193,0,2,x,288,0
2,194,1,2,x,336,1
2,195,0,2,x,269,0
2,196,1,2,x,365,1
2,197,1,2,x,157,1
2,198,0,2,n,192,1
2,199,1,2,x,337,1
2,200,0,2,n,352,1
2,201,1,2,x,257,1
2,202,1,2,x,110,1
2,203,0,2,n,145,1
2,204,1,2,x,269,1
2,205,1,2,x,343,1
2,206,0,2,n,265,1
2,207,1,2,x,238,1
2,208,0,2,n,342,1
2,209,1,2,x,295,1
2,210,1,2,x,223,1
2,211,0,2,n,8,1
2,212,1,2,x,342,1
2,213,1,2,x,360,1
2,214,0,2,n,45,1
2,215,1,2,x,276,1
2,216,0,2,n,395,1
2,217,1,2,x,217,1
2,218,1,2,x,193,1
2,219,0,2,n,124,1
2,220,1,2,x,286,1
2,221,0,2,n,376,1
2,222,1,2,x,251,1
2,223,1,2,x,258,1
2,224,0,2,n,234,1
2,225,1,2,x,294,1
2,226,1,2,x,308,1
2,227,0,2,n,62,1
2,228,1,2,x,318,1
2,229,0,2,n,369,1
2,230,1,2,x,95,1
2,231,1,2,x,219,1
2,232,0,2,n,50,1
2,233,1,2,x,325,1
2,1,0,3,n,944,1
2,2,1,3,x,271,1
2,3,1,3,x,408,1
2,4,0,3,n,164,1
2,5,1,3,x,340,1
2,6,1,3,x,160,1
2,7,0,3,n,256,1
2,8,1,3,x,74,1
2,9,0,3,n,364,1
2,10,1,3,x,128,1
2,11,1,3,x,252,1
2,12,0,3,n,37,1
2,13,1,3,x,173,1
2,14,1,3,n,228,0
2,15,0,3,x,218,0
2,16,1,3,x,268,1
2,17,0,3,n,466,1
2,18,1,3,x,357,1
2,19,1,3,x,315,1
2,20,0,3,n,264,1
2,21,1,3,x,310,1
2,22,0,3,n,373,1
2,23,1,3,x,228,1
2,24,1,3,x,98,1
2,25,0,3,n,90,1
2,26,1,3,x,275,1
2,27,1,3,x,377,1
2,28,0,3,n,37,1
2,29,1,3,x,293,1
2,30,0,3,n,394,1
2,31,1,3,x,280,1
2,32,1,3,x,246,1
2,33,0,3,n,257,1
2,34,1,3,x,304,1
2,35,1,3,x,296,1
2,36,0,3,n,263,1
2,37,1,3,x,224,1
2,38,0,3,x,329,0
2,39,1,3,x,350,1
2,40,1,3,x,247,1
2,41,0,3,n,75,1
2,42,1,3,x,281,1
2,43,0,3,n,338,1
2,44,1,3,x,259,1
2,45,1,3,x,146,1
2,46,0,3,n,103,1
2,47,1,3,x,285,1
2,48,1,3,x,388,1
2,49,0,3,n,10,1
2,50,1,3,x,362,1
2,51,0,3,n,383,1
2,52,1,3,x,228,1
2,53,1,3,x,133,1
2,54,0,3,n,359,1
2,55,1,3,x,356,1
2,56,0,3,n,337,1
2,57,1,3,x,100,1
2,58,1,3,x,309,1
2,59,0,3,n,4,1
2,60,1,3,x,300,1
2,61,1,3,x,351,1
2,62,0,3,n,316,1
2,63,1,3,x,221,1
2,64,0,3,n,394,1
2,65,1,3,x,344,1
2,66,1,3,x,290,1
2,67,0,3,n,30,1
2,68,1,3,x,294,1
2,69,1,3,x,376,1
2,70,0,3,n,97,1
2,71,1,3,x,411,1
2,72,0,3,x,226,0
2,73,1,3,x,458,1
2,74,1,3,x,423,1
2,75,0,3,n,311,1
2,76,1,3,x,162,1
2,77,0,3,n,401,1
2,78,1,3,x,173,1
2,79,1,3,x,353,1
2,80,0,3,n,64,1
2,81,1,3,x,265,1
2,82,1,3,x,421,1
2,83,0,3,n,143,1
2,84,1,3,x,281,1
2,85,0,3,n,378,1
2,86,1,3,x,264,1
2,87,1,3,x,291,1
2,88,0,3,n,76,1
2,89,1,3,x,424,1
2,90,1,3,x,284,1
2,91,0,3,n,79,1
2,92,1,3,x,300,1
2,93,0,3,n,271,1
2,94,1,3,x,199,1
2,95,1,3,x,315,1
2,96,0,3,n,494,1
2,97,1,3,x,437,1
2,98,0,3,n,422,1
2,99,1,3,x,67,1
2,100,1,3,x,333,1
2,101,0,3,n,96,1
2,102,1,3,x,251,1
2,103,1,3,x,303,1
2,104,0,3,n,129,1
2,105,1,3,x,395,1
2,106,0,3,n,286,1
2,107,1,3,x,143,1
2,108,1,3,x,287,1
2,109,0,3,n,77,1
2,110,1,3,x,211,1
2,111,0,3,n,283,1
2,112,1,3,x,138,1
2,113,1,3,x,298,1
2,114,0,3,n,68,1
2,115,1,3,x,142,1
2,116,1,3,n,275,0
2,117,0,3,n,499,1
2,118,1,3,x,205,1
2,119,0,3,x,240,0
2,120,1,3,x,317,1
2,121,1,3,x,466,1
2,122,0,3,n,47,1
2,123,1,3,x,219,1
2,124,1,3,x,301,1
2,125,0,3,n,247,1
2,126,1,3,x,253,1
2,127,0,3,x,240,0
2,128,1,3,x,300,1
2,129,1,3,n,292,0
2,130,0,3,x,329,0
2,131,1,3,x,500,1
2,132,0,3,n,426,1
2,133,1,3,x,212,1
2,134,1,3,x,279,1
2,135,0,3,n,269,1
2,136,1,3,x,144,1
2,137,1,3,x,317,1
2,138,0,3,n,124,1
2,139,1,3,x,250,1
2,140,0,3,n,276,1
2,141,1,3,x,231,1
2,142,1,3,x,295,1
2,143,0,3,n,274,1
2,144,1,3,x,269,1
2,145,0,3,n,268,1
2,146,1,3,x,90,1
2,147,1,3,x,208,1
2,148,0,3,n,182,1
2,149,1,3,x,158,1
2,150,1,3,x,434,1
2,151,0,3,n,22,1
2,152,1,3,x,151,1
2,153,0,3,n,327,1
2,154,1,3,x,37,1
2,155,1,3,x,303,1
2,156,0,3,n,97,1
2,157,1,3,x,345,1
2,158,1,3,x,378,1
2,159,0,3,n,255,1
2,160,1,3,x,167,1
2,161,0,3,x,273,0
2,162,1,3,x,339,1
2,163,1,3,x,267,1
2,164,0,3,n,43,1
2,165,1,3,x,174,1
2,166,0,3,n,428,1
2,167,1,3,x,229,1
2,168,1,3,x,157,1
2,169,0,3,n,203,1
2,170,1,3,x,271,1
2,171,1,3,x,553,1
2,172,0,3,n,511,1
2,173,1,3,x,245,1
2,174,0,3,n,315,1
2,175,1,3,x,62,1
2,176,1,3,x,183,1
2,177,0,3,n,163,1
2,178,1,3,x,265,1
2,179,1,3,x,337,1
2,180,0,3,n,278,1
2,181,1,3,x,138,1
2,182,0,3,n,477,1
2,183,1,3,x,175,1
2,184,1,3,x,358,1
2,185,0,3,n,278,1
2,186,1,3,x,288,1
2,187,0,3,n,399,1
2,188,1,3,x,36,1
2,189,1,3,x,174,1
2,190,0,3,n,120,1
2,191,1,3,x,196,1
2,192,1,3,x,366,1
2,193,0,3,n,379,1
2,194,1,3,x,185,1
2,195,0,3,n,327,1
2,196,1,3,x,54,1
2,197,1,3,x,321,1
2,198,0,3,n,79,1
2,199,1,3,x,257,1
2,200,0,3,n,376,1
2,201,1,3,x,167,1
2,202,1,3,x,329,1
2,203,0,3,n,22,1
2,204,1,3,x,261,1
2,205,1,3,x,318,1
2,206,0,3,n,12,1
2,207,1,3,x,293,1
2,208,0,3,n,288,1
2,209,1,3,x,192,1
2,210,1,3,x,288,1
2,211,0,3,n,61,1
2,212,1,3,x,204,1
2,213,1,3,x,346,1
2,214,0,3,n,92,1
2,215,1,3,x,188,1
2,216,0,3,n,348,1
2,217,1,3,x,135,1
2,218,1,3,x,90,1
2,219,0,3,n,27,1
2,220,1,3,x,165,1
2,221,0,3,n,294,1
2,222,1,3,x,418,1
2,223,1,3,x,281,1
2,224,0,3,n,53,1
2,225,1,3,x,254,1
2,226,1,3,x,370,1
2,227,0,3,n,136,1
2,228,1,3,x,304,1
2,229,0,3,n,462,1
2,230,1,3,x,128,1
2,231,1,3,x,256,1
2,232,0,3,n,411,1
2,233,1,3,x,123,1
2,1,0,4,n,1065,1
2,2,1,4,x,430,1
2,3,1,4,n,247,0
2,4,0,4,n,539,1
2,5,1,4,x,321,1
2,6,1,4,n,362,0
2,7,0,4,n,628,1
2,8,1,4,x,252,1
2,9,0,4,n,411,1
2,10,1,4,x,432,1
2,11,1,4,x,354,1
2,12,0,4,n,155,1
2,13,1,4,x,276,1
2,14,1,4,x,357,1
2,15,0,4,n,125,1
2,16,1,4,x,520,1
2,17,0,4,n,419,1
2,18,1,4,x,175,1
2,19,1,4,x,323,1
2,20,0,4,n,45,1
2,21,1,4,x,314,1
2,22,0,4,n,378,1
2,23,1,4,x,99,1
2,24,1,4,x,260,1
2,25,0,4,n,136,1
2,26,1,4,x,207,1
2,27,1,4,x,338,1
2,28,0,4,n,125,1
2,29,1,4,x,65,1
2,30,0,4,n,245,1
2,31,1,4,x,87,1
2,32,1,4,x,252,1
2,33,0,4,n,397,1
2,34,1,4,x,64,1
2,35,1,4,x,354,1
2,36,0,4,n,68,1
2,37,1,4,x,111,1
2,38,0,4,n,253,1
2,39,1,4,x,49,1
2,40,1,4,x,109,1
2,41,0,4,n,103,1
2,42,1,4,x,353,1
2,43,0,4,n,294,1
2,44,1,4,x,147,1
2,45,1,4,x,112,1
2,46,0,4,n,99,1
2,47,1,4,x,259,1
2,48,1,4,x,342,1
2,49,0,4,n,100,1
2,50,1,4,x,255,1
2,51,0,4,n,327,1
2,52,1,4,x,205,1
2,53,1,4,x,142,1
2,54,0,4,n,16,1
2,55,1,4,x,61,1
2,56,0,4,n,355,1
2,57,1,4,x,102,1
2,58,1,4,x,264,1
2,59,0,4,n,377,1
2,60,1,4,x,319,1
2,61,1,4,x,353,1
2,62,0,4,n,74,1
2,63,1,4,x,288,1
2,64,0,4,n,219,1
2,65,1,4,x,160,1
2,66,1,4,x,333,1
2,67,0,4,n,380,1
2,68,1,4,x,123,1
2,69,1,4,x,235,1
2,70,0,4,n,166,1
2,71,1,4,x,354,1
2,72,0,4,n,315,1
2,73,1,4,x,162,1
2,74,1,4,x,104,1
2,75,0,4,n,124,1
2,76,1,4,x,253,1
2,77,0,4,n,226,1
2,78,1,4,x,254,1
2,79,1,4,x,362,1
2,80,0,4,n,102,1
2,81,1,4,x,124,1
2,82,1,4,x,381,1
2,83,0,4,n,241,1
2,84,1,4,x,218,1
2,85,0,4,n,291,1
2,86,1,4,x,166,1
2,87,1,4,x,51,1
2,88,0,4,n,355,1
2,89,1,4,x,188,1
2,90,1,4,x,290,1
2,91,0,4,n,137,1
2,92,1,4,x,316,1
2,93,0,4,n,343,1
2,94,1,4,x,157,1
2,95,1,4,x,92,1
2,96,0,4,n,86,1
2,97,1,4,x,213,1
2,98,0,4,n,364,1
2,99,1,4,x,237,1
2,100,1,4,x,196,1
2,101,0,4,n,27,1
2,102,1,4,x,39,1
2,103,1,4,x,363,1
2,104,0,4,n,120,1
2,105,1,4,x,260,1
2,106,0,4,n,216,1
2,107,1,4,x,223,1
2,108,1,4,x,58,1
2,109,0,4,n,362,1
2,110,1,4,x,142,1
2,111,0,4,n,298,1
2,112,1,4,x,266,1
2,113,1,4,x,21,1
2,114,0,4,n,72,1
2,115,1,4,x,467,1
2,116,1,4,x,364,1
2,117,0,4,n,107,1
2,118,1,4,x,423,1
2,119,0,4,n,154,1
2,120,1,4,x,156,1
2,121,1,4,x,301,1
2,122,0,4,n,371,1
2,123,1,4,x,314,1
2,124,1,4,x,346,1
2,125,0,4,n,250,1
2,126,1,4,x,424,1
2,127,0,4,n,316,1
2,128,1,4,x,275,1
2,129,1,4,x,574,1
2,130,0,4,n,51,1
2,131,1,4,x,276,1
2,132,0,4,n,296,1
2,133,1,4,x,275,1
2,134,1,4,x,73,1
2,135,0,4,n,93,1
2,136,1,4,x,268,1
2,137,1,4,x,344,1
2,138,0,4,n,97,1
2,139,1,4,x,85,1
2,140,0,4,n,268,1
2,141,1,4,x,108,1
2,142,1,4,x,136,1
2,143,0,4,n,68,1
2,144,1,4,x,231,1
2,145,0,4,n,240,1
2,146,1,4,x,117,1
2,147,1,4,x,37,1
2,148,0,4,n,37,1
2,149,1,4,x,254,1
2,150,1,4,x,423,1
2,151,0,4,n,43,1
2,152,1,4,x,184,1
2,153,0,4,n,101,1
2,154,1,4,x,260,1
2,155,1,4,x,249,1
2,156,0,4,n,307,1
2,157,1,4,x,130,1
2,158,1,4,n,230,0
2,159,0,4,n,523,1
2,160,1,4,x,234,1
2,161,0,4,n,215,1
2,162,1,4,x,139,1
2,163,1,4,x,201,1
2,164,0,4,n,48,1
2,165,1,4,x,207,1
2,166,0,4,n,431,1
2,167,1,4,x,274,1
2,168,1,4,x,35,1
2,169,0,4,n,361,1
2,170,1,4,x,213,1
2,171,1,4,x,374,1
2,172,0,4,n,63,1
2,173,1,4,x,315,1
2,174,0,4,n,225,1
2,175,1,4,x,271,1
2,176,1,4,x,317,1
2,177,0,4,n,305,1
2,178,1,4,x,185,1
2,179,1,4,x,315,1
2,180,0,4,n,138,1
2,181,1,4,x,274,1
2,182,0,4,n,102,1
2,183,1,4,x,133,1
2,184,1,4,x,70,1
2,185,0,4,n,18,1
2,186,1,4,x,122,1
2,187,0,4,x,340,0
2,188,1,4,x,300,1
2,189,1,4,n,256,0
2,190,0,4,x,536,0
2,191,1,4,x,329,1
2,192,1,4,x,127,1
2,193,0,4,n,100,1
2,194,1,4,x,359,1
2,195,0,4,n,325,1
2,196,1,4,x,135,1
2,197,1,4,x,115,1
2,198,0,4,n,87,1
2,199,1,4,x,254,1
2,200,0,4,n,351,1
2,201,1,4,x,396,1
2,202,1,4,x,344,1
2,203,0,4,n,45,1
2,204,1,4,x,438,1
2,205,1,4,x,369,1
2,206,0,4,n,80,1
2,207,1,4,x,487,1
2,208,0,4,n,352,1
2,209,1,4,x,138,1
2,210,1,4,x,3,1
2,211,0,4,n,224,1
2,212,1,4,x,386,1
2,213,1,4,x,368,1
2,214,0,4,n,285,1
2,215,1,4,x,333,1
2,216,0,4,n,300,1
2,217,1,4,x,252,1
2,218,1,4,n,259,0
2,219,0,4,x,256,0
2,220,1,4,x,351,1
2,221,0,4,n,321,1
2,222,1,4,x,408,1
2,223,1,4,x,356,1
2,224,0,4,n,67,1
2,225,1,4,x,294,1
2,226,1,4,x,294,1
2,227,0,4,n,243,1
2,228,1,4,x,184,1
2,229,0,4,n,286,1
2,230,1,4,x,131,1
2,231,1,4,x,254,1
2,232,0,4,n,20,1
2,233,1,4,x,304,1
2,1,0,5,n,976,1
2,2,1,5,x,263,1
2,3,1,5,x,365,1
2,4,0,5,n,195,1
2,5,1,5,x,450,1
2,6,1,5,x,261,1
2,7,0,5,n,42,1
2,8,1,5,x,39,1
2,9,0,5,n,271,1
2,10,1,5,x,178,1
2,11,1,5,x,69,1
2,12,0,5,n,351,1
2,13,1,5,x,67,1
2,14,1,5,x,344,1
2,15,0,5,n,105,1
2,16,1,5,x,259,1
2,17,0,5,n,331,1
2,18,1,5,x,82,1
2,19,1,5,x,82,1
2,20,0,5,n,217,1
2,21,1,5,x,221,1
2,22,0,5,n,269,1
2,23,1,5,x,115,1
2,24,1,5,x,316,1
2,25,0,5,n,55,1
2,26,1,5,x,148,1
2,27,1,5,n,281,0
2,28,0,5,x,100,0
2,29,1,5,x,362,1
2,30,0,5,n,469,1
2,31,1,5,x,287,1
2,32,1,5,x,260,1
2,33,0,5,n,142,1
2,34,1,5,x,269,1
2,35,1,5,x,641,1
2,36,0,5,n,260,1
2,37,1,5,x,130,1
2,38,0,5,n,358,1
2,39,1,5,x,162,1
2,40,1,5,x,86,1
2,41,0,5,n,37,1
2,42,1,5,x,58,1
2,43,0,5,n,371,1
2,44,1,5,x,104,1
2,45,1,5,x,234,1
2,46,0,5,n,336,1
2,47,1,5,x,27,1
2,48,1,5,n,246,0
2,49,0,5,x,220,0
2,50,1,5,x,287,1
2,51,0,5,n,296,1
2,52,1,5,x,122,1
2,53,1,5,x,258,1
2,54,0,5,n,74,1
2,55,1,5,x,150,1
2,56,0,5,n,391,1
2,57,1,5,x,84,1
2,58,1,5,x,271,1
2,59,0,5,n,323,1
2,60,1,5,x,63,1
2,61,1,5,x,351,1
2,62,0,5,n,97,1
2,63,1,5,x,69,1
2,64,0,5,x,309,0
2,65,1,5,x,153,1
2,66,1,5,x,348,1
2,67,0,5,n,79,1
2,68,1,5,x,191,1
2,69,1,5,x,344,1
2,70,0,5,n,83,1
2,71,1,5,x,164,1
2,72,0,5,n,278,1
2,73,1,5,x,129,1
2,74,1,5,x,334,1
2,75,0,5,n,68,1
2,76,1,5,x,38,1
2,77,0,5,n,438,1
2,78,1,5,x,24,1
2,79,1,5,x,295,1
2,80,0,5,n,88,1
2,81,1,5,x,249,1
2,82,1,5,x,374,1
2,83,0,5,n,17,1
2,84,1,5,x,261,1
2,85,0,5,n,407,1
2,86,1,5,x,73,1
2,87,1,5,x,177,1
2,88,0,5,n,16,1
2,89,1,5,x,483,1
2,90,1,5,x,344,1
2,91,0,5,n,50,1
2,92,1,5,x,252,1
2,93,0,5,n,329,1
2,94,1,5,x,82,1
2,95,1,5,x,266,1
2,96,0,5,n,101,1
2,97,1,5,x,223,1
2,98,0,5,n,245,1
2,99,1,5,x,101,1
2,100,1,5,x,263,1
2,101,0,5,n,323,1
2,102,1,5,x,112,1
2,103,1,5,x,348,1
2,104,0,5,n,193,1
2,105,1,5,x,252,1
2,106,0,5,n,274,1
2,107,1,5,x,101,1
2,108,1,5,x,94,1
2,109,0,5,n,45,1
2,110,1,5,x,90,1
2,111,0,5,n,454,1
2,112,1,5,x,187,1
2,113,1,5,x,180,1
2,114,0,5,n,87,1
2,115,1,5,x,105,1
2,116,1,5,x,345,1
2,117,0,5,n,169,1
2,118,1,5,x,257,1
2,119,0,5,n,322,1
2,120,1,5,x,96,1
2,121,1,5,x,147,1
2,122,0,5,n,49,1
2,123,1,5,x,274,1
2,124,1,5,x,359,1
2,125,0,5,n,160,1
2,126,1,5,x,362,1
2,127,0,5,n,313,1
2,128,1,5,x,114,1
2,129,1,5,x,276,1
2,130,0,5,n,194,1
2,131,1,5,x,137,1
2,132,0,5,n,399,1
2,133,1,5,x,83,1
2,134,1,5,x,315,1
2,135,0,5,n,370,1
2,136,1,5,x,108,1
2,137,1,5,x,345,1
2,138,0,5,n,41,1
2,139,1,5,x,209,1
2,140,0,5,n,466,1
2,141,1,5,x,117,1
2,142,1,5,x,119,1
2,143,0,5,n,355,1
2,144,1,5,x,36,1
2,145,0,5,n,312,1
2,146,1,5,x,127,1
2,147,1,5,x,151,1
2,148,0,5,n,44,1
2,149,1,5,x,67,1
2,150,1,5,x,435,1
2,151,0,5,n,15,1
2,152,1,5,x,327,1
2,153,0,5,n,300,1
2,154,1,5,x,247,1
2,155,1,5,x,348,1
2,156,0,5,n,201,1
2,157,1,5,x,230,1
2,158,1,5,x,455,1
2,159,0,5,n,281,1
2,160,1,5,x,238,1
2,161,0,5,n,307,1
2,162,1,5,x,127,1
2,163,1,5,x,342,1
2,164,0,5,n,340,1
2,165,1,5,x,263,1
2,166,0,5,n,355,1
2,167,1,5,x,220,1
2,168,1,5,n,289,0
2,169,0,5,x,206,0
2,170,1,5,x,468,1
2,171,1,5,n,313,0
2,172,0,5,x,276,0
2,173,1,5,x,344,1
2,174,0,5,n,382,1
2,175,1,5,x,122,1
2,176,1,5,x,261,1
2,177,0,5,n,94,1
2,178,1,5,x,127,1
2,179,1,5,n,240,0
2,180,0,5,x,263,0
2,181,1,5,x,288,1
2,182,0,5,n,299,1
2,183,1,5,x,109,1
2,184,1,5,x,175,1
2,185,0,5,n,85,1
2,186,1,5,x,284,1
2,187,0,5,n,301,1
2,188,1,5,x,214,1
2,189,1,5,x,124,1
2,190,0,5,n,54,1
2,191,1,5,x,262,1
2,192,1,5,x,429,1
2,193,0,5,n,82,1
2,194,1,5,x,249,1
2,195,0,5,n,373,1
2,196,1,5,x,28,1
2,197,1,5,x,76,1
2,198,0,5,n,110,1
2,199,1,5,x,248,1
2,200,0,5,n,298,1
2,201,1,5,x,386,1
2,202,1,5,x,321,1
2,203,0,5,n,63,1
2,204,1,5,x,224,1
2,205,1,5,x,319,1
2,206,0,5,n,143,1
2,207,1,5,x,115,1
2,208,0,5,n,422,1
2,209,1,5,x,77,1
2,210,1,5,x,247,1
2,211,0,5,n,114,1
2,212,1,5,x,198,1
2,213,1,5,x,374,1
2,214,0,5,n,75,1
2,215,1,5,x,113,1
2,216,0,5,n,466,1
2,217,1,5,x,106,1
2,218,1,5,x,258,1
2,219,0,5,n,63,1
2,220,1,5,x,5,1
2,221,0,5,n,448,1
2,222,1,5,x,136,1
2,223,1,5,x,308,1
2,224,0,5,n,279,1
2,225,1,5,x,121,1
2,226,1,5,n,364,0
2,227,0,5,x,188,0
2,228,1,5,x,316,1
2,229,0,5,n,298,1
2,230,1,5,x,177,1
2,231,1,5,n,324,0
2,232,0,5,x,295,0
2,233,1,5,x,301,1
3,1,0,1,n,517,1
3,2,1,1,x,445,1
3,3,1,1,x,308,1
3,4,0,1,n,314,1
3,5,1,1,x,337,1
3,6,1,1,x,347,1
3,7,0,1,n,305,1
3,8,1,1,x,354,1
3,9,0,1,n,306,1
3,10,1,1,x,401,1
3,11,1,1,x,367,1
3,12,0,1,n,393,1
3,13,1,1,x,402,1
3,14,1,1,x,400,1
3,15,0,1,n,364,1
3,16,1,1,x,418,1
3,17,0,1,n,343,1
3,18,1,1,x,382,1
3,19,1,1,x,348,1
3,20,0,1,n,422,1
3,21,1,1,x,375,1
3,22,0,1,n,354,1
3,23,1,1,x,373,1
3,24,1,1,x,424,1
3,25,0,1,n,454,1
3,26,1,1,x,588,1
3,27,1,1,x,386,1
3,28,0,1,n,428,1
3,29,1,1,x,389,1
3,30,0,1,n,407,1
3,31,1,1,x,322,1
3,32,1,1,x,400,1
3,33,0,1,n,438,1
3,34,1,1,x,437,1
3,35,1,1,x,402,1
3,36,0,1,n,389,1
3,37,1,1,x,370,1
3,38,0,1,n,305,1
3,39,1,1,x,393,1
3,40,1,1,x,469,1
3,41,0,1,n,412,1
3,42,1,1,x,336,1
3,43,0,1,n,356,1
3,44,1,1,x,351,1
3,45,1,1,x,330,1
3,46,0,1,x,385,0
3,47,1,1,x,356,1
3,48,1,1,x,343,1
3,49,0,1,n,407,1
3,50,1,1,x,325,1
3,51,0,1,n,278,1
3,52,1,1,x,403,1
3,53,1,1,x,296,1
3,54,0,1,n,995,1
3,55,1,1,x,378,1
3,56,0,1,n,444,1
3,57,1,1,x,350,1
3,58,1,1,x,482,1
3,59,0,1,n,386,1
3,60,1,1,x,396,1
3,61,1,1,x,458,1
3,62,0,1,n,459,1
3,63,1,1,x,292,1
3,64,0,1,n,528,1
3,65,1,1,x,313,1
3,66,1,1,x,400,1
3,67,0,1,n,467,1
3,68,1,1,x,343,1
3,69,1,1,x,429,1
3,70,0,1,n,413,1
3,71,1,1,x,408,1
3,72,0,1,n,377,1
3,73,1,1,x,407,1
3,74,1,1,x,466,1
3,75,0,1,n,364,1
3,76,1,1,x,454,1
3,77,0,1,n,650,1
3,78,1,1,x,310,1
3,79,1,1,x,415,1
3,80,0,1,n,317,1
3,81,1,1,x,373,1
3,82,1,1,x,390,1
3,83,0,1,n,377,1
3,84,1,1,x,399,1
3,85,0,1,n,373,1
3,86,1,1,x,437,1
3,87,1,1,x,336,1
3,88,0,1,n,335,1
3,89,1,1,x,443,1
3,90,1,1,x,360,1
3,91,0,1,n,400,1
3,92,1,1,x,588,1
3,93,0,1,x,334,0
3,94,1,1,x,636,1
3,95,1,1,x,365,1
3,96,0,1,n,345,1
3,97,1,1,x,426,1
3,98,0,1,n,481,1
3,99,1,1,x,518,1
3,100,1,1,x,405,1
3,101,0,1,n,483,1
3,102,1,1,x,456,1
3,103,1,1,x,342,1
3,104,0,1,n,476,1
3,105,1,1,x,426,1
3,106,0,1,n,382,1
3,107,1,1,x,439,1
3,108,1,1,x,398,1
3,109,0,1,n,552,1
3,110,1,1,x,358,1
3,111,0,1,n,299,1
3,112,1,1,x,294,1
3,113,1,1,x,327,1
3,114,0,1,x,334,0
3,115,1,1,x,533,1
3,116,1,1,x,437,1
3,117,0,1,n,386,1
3,118,1,1,x,300,1
3,119,0,1,n,376,1
3,120,1,1,x,383,1
3,121,1,1,x,408,1
3,122,0,1,x,355,0
3,123,1,1,x,407,1
3,124,1,1,n,332,0
3,125,0,1,n,866,1
3,126,1,1,x,338,1
3,127,0,1,n,390,1
3,128,1,1,x,375,1
3,129,1,1,x,394,1
3,130,0,1,x,338,0
3,131,1,1,x,488,1
3,132,0,1,n,432,1
3,133,1,1,x,406,1
3,134,1,1,x,344,1
3,135,0,1,n,422,1
3,136,1,1,x,374,1
3,137,1,1,x,364,1
3,138,0,1,n,413,1
3,139,1,1,x,407,1
3,140,0,1,n,501,1
3,141,1,1,x,384,1
3,142,1,1,x,456,1
3,143,0,1,n,517,1
3,144,1,1,x,573,1
3,145,0,1,n,508,1
3,146,1,1,x,503,1
3,147,1,1,x,445,1
3,148,0,1,n,453,1
3,149,1,1,x,369,1
3,150,1,1,x,538,1
3,151,0,1,n,382,1
3,152,1,1,x,422,1
3,153,0,1,n,504,1
3,154,1,1,x,376,1
3,155,1,1,x,473,1
3,156,0,1,n,460,1
3,157,1,1,x,415,1
3,158,1,1,x,434,1
3,159,0,1,n,481,1
3,160,1,1,x,452,1
3,161,0,1,n,532,1
3,162,1,1,x,422,1
3,163,1,1,x,505,1
3,164,0,1,n,536,1
3,165,1,1,x,443,1
3,166,0,1,n,499,1
3,167,1,1,x,490,1
3,168,1,1,x,505,1
3,169,0,1,n,530,1
3,170,1,1,x,431,1
3,171,1,1,x,365,1
3,172,0,1,n,404,1
3,173,1,1,x,327,1
3,174,0,1,n,392,1
3,175,1,1,x,355,1
3,176,1,1,x,307,1
3,177,0,1,n,470,1
3,178,1,1,x,417,1
3,179,1,1,x,350,1
3,180,0,1,n,463,1
3,181,1,1,x,363,1
3,182,0,1,n,433,1
3,183,1,1,x,348,1
3,184,1,1,x,614,1
3,185,0,1,n,399,1
3,186,1,1,x,443,1
3,187,0,1,n,453,1
3,188,1,1,x,397,1
3,189,1,1,x,385,1
3,190,0,1,n,415,1
3,191,1,1,x,486,1
3,192,1,1,x,544,1
3,193,0,1,n,343,1
3,194,1,1,x,381,1
3,195,0,1,n,455,1
3,196,1,1,x,321,1
3,197,1,1,x,450,1
3,198,0,1,n,445,1
3,199,1,1,x,399,1
3,200,0,1,x,376,0
3,201,1,1,x,350,1
3,202,1,1,x,395,1
3,203,0,1,n,433,1
3,204,1,1,x,317,1
3,205,1,1,x,377,1
3,206,0,1,n,365,1
3,207,1,1,x,376,1
3,208,0,1,n,362,1
3,209,1,1,x,296,1
3,210,1,1,x,479,1
3,211,0,1,n,593,1
3,212,1,1,x,335,1
3,213,1,1,x,384,1
3,214,0,1,n,419,1
3,215,1,1,x,317,1
3,216,0,1,n,734,1
3,217,1,1,x,350,1
3,218,1,1,x,398,1
3,219,0,1,x,416,0
3,220,1,1,x,337,1
3,221,0,1,n,439,1
3,222,1,1,x,368,1
3,223,1,1,x,387,1
3,224,0,1,n,448,1
3,225,1,1,x,310,1
3,226,1,1,x,457,1
3,227,0,1,n,470,1
3,228,1,1,x,397,1
3,229,0,1,x,336,0
3,230,1,1,x,353,1
3,231,1,1,x,420,1
3,232,0,1,n,423,1
3,233,1,1,x,356,1
3,1,0,2,timeout,1203,timeout
3,2,1,2,x,362,1
3,3,1,2,x,361,1
3,4,0,2,n,391,1
3,5,1,2,x,299,1
3,6,1,2,x,373,1
3,7,0,2,n,363,1
3,8,1,2,x,305,1
3,9,0,2,x,357,0
3,10,1,2,x,324,1
3,11,1,2,x,407,1
3,12,0,2,n,379,1
3,13,1,2,x,383,1
3,14,1,2,x,386,1
3,15,0,2,n,405,1
3,16,1,2,x,461,1
3,17,0,2,n,382,1
3,18,1,2,x,422,1
3,19,1,2,x,397,1
3,20,0,2,n,410,1
3,21,1,2,x,409,1
3,22,0,2,n,491,1
3,23,1,2,x,403,1
3,24,1,2,x,405,1
3,25,0,2,n,443,1
3,26,1,2,x,427,1
3,27,1,2,x,301,1
3,28,0,2,n,385,1
3,29,1,2,x,285,1
3,30,0,2,x,311,0
3,31,1,2,x,330,1
3,32,1,2,x,488,1
3,33,0,2,n,391,1
3,34,1,2,x,293,1
3,35,1,2,x,303,1
3,36,0,2,n,380,1
3,37,1,2,x,300,1
3,38,0,2,x,294,0
3,39,1,2,x,322,1
3,40,1,2,x,310,1
3,41,0,2,n,419,1
3,42,1,2,x,358,1
3,43,0,2,n,393,1
3,44,1,2,x,349,1
3,45,1,2,x,559,1
3,46,0,2,n,499,1
3,47,1,2,x,348,1
3,48,1,2,x,353,1
3,49,0,2,n,527,1
3,50,1,2,x,313,1
3,51,0,2,n,374,1
3,52,1,2,x,305,1
3,53,1,2,x,349,1
3,54,0,2,n,337,1
3,55,1,2,x,339,1
3,56,0,2,n,455,1
3,57,1,2,x,361,1
3,58,1,2,x,354,1
3,59,0,2,n,329,1
3,60,1,2,x,285,1
3,61,1,2,x,286,1
3,62,0,2,n,283,1
3,63,1,2,x,437,1
3,64,0,2,n,470,1
3,65,1,2,x,286,1
3,66,1,2,x,352,1
3,67,0,2,n,411,1
3,68,1,2,x,285,1
3,69,1,2,x,285,1
3,70,0,2,n,387,1
3,71,1,2,x,294,1
3,72,0,2,n,469,1
3,73,1,2,x,275,1
3,74,1,2,x,407,1
3,75,0,2,n,632,1
3,76,1,2,x,302,1
3,77,0,2,x,297,0
3,78,1,2,x,338,1
3,79,1,2,x,299,1
3,80,0,2,n,391,1
3,81,1,2,x,338,1
3,82,1,2,x,394,1
3,83,0,2,n,361,1
3,84,1,2,x,306,1
3,85,0,2,n,401,1
3,86,1,2,x,291,1
3,87,1,2,x,481,1
3,88,0,2,n,336,1
3,89,1,2,x,360,1
3,90,1,2,x,387,1
3,91,0,2,n,361,1
3,92,1,2,x,279,1
3,93,0,2,n,415,1
3,94,1,2,x,342,1
3,95,1,2,x,275,1
3,96,0,2,n,304,1
3,97,1,2,x,312,1
3,98,0,2,n,422,1
3,99,1,2,x,291,1
3,100,1,2,x,270,1
3,101,0,2,n,424,1
3,102,1,2,x,257,1
3,103,1,2,x,250,1
3,104,0,2,n,360,1
3,105,1,2,x,277,1
3,106,0,2,x,260,0
3,107,1,2,x,359,1
3,108,1,2,x,330,1
3,109,0,2,n,396,1
3,110,1,2,x,304,1
3,111,0,2,n,411,1
3,112,1,2,x,256,1
3,113,1,2,n,284,0
3,114,0,2,n,325,1
3,115,1,2,x,282,1
3,116,1,2,x,329,1
3,117,0,2,n,388,1
3,118,1,2,x,295,1
3,119,0,2,n,400,1
3,120,1,2,x,320,1
3,121,1,2,x,349,1
3,122,0,2,n,415,1
3,123,1,2,x,375,1
3,124,1,2,x,350,1
3,125,0,2,n,419,1
3,126,1,2,x,237,1
3,127,0,2,n,394,1
3,128,1,2,x,291,1
3,129,1,2,n,285,0
3,130,0,2,n,1107,1
3,131,1,2,x,363,1
3,132,0,2,n,501,1
3,133,1,2,x,301,1
3,134,1,2,x,448,1
3,135,0,2,n,364,1
3,136,1,2,x,326,1
3,137,1,2,x,334,1
3,138,0,2,n,376,1
3,139,1,2,x,417,1
3,140,0,2,x,311,0
3,141,1,2,n,432,0
3,142,1,2,x,824,1
3,143,0,2,n,455,1
3,144,1,2,x,432,1
3,145,0,2,n,430,1
3,146,1,2,x,299,1
3,147,1,2,x,330,1
3,148,0,2,x,255,0
3,149,1,2,x,299,1
3,150,1,2,x,332,1
3,151,0,2,n,452,1
3,152,1,2,x,302,1
3,153,0,2,n,442,1
3,154,1,2,x,350,1
3,155,1,2,x,490,1
3,156,0,2,n,399,1
3,157,1,2,x,391,1
3,158,1,2,x,307,1
3,159,0,2,n,488,1
3,160,1,2,x,332,1
3,161,0,2,n,479,1
3,162,1,2,x,438,1
3,163,1,2,x,386,1
3,164,0,2,n,441,1
3,165,1,2,x,325,1
3,166,0,2,n,395,1
3,167,1,2,x,287,1
3,168,1,2,x,356,1
3,169,0,2,n,346,1
3,170,1,2,x,281,1
3,171,1,2,x,306,1
3,172,0,2,n,355,1
3,173,1,2,x,306,1
3,174,0,2,n,455,1
3,175,1,2,x,250,1
3,176,1,2,x,292,1
3,177,0,2,x,264,0
3,178,1,2,x,396,1
3,179,1,2,x,440,1
3,180,0,2,n,474,1
3,181,1,2,x,334,1
3,182,0,2,n,445,1
3,183,1,2,x,407,1
3,184,1,2,x,466,1
3,185,0,2,n,501,1
3,186,1,2,x,316,1
3,187,0,2,n,540,1
3,188,1,2,x,310,1
3,189,1,2,x,338,1
3,190,0,2,n,474,1
3,191,1,2,x,366,1
3,192,1,2,x,320,1
3,193,0,2,x,259,0
3,194,1,2,x,417,1
3,195,0,2,n,594,1
3,196,1,2,x,282,1
3,197,1,2,x,366,1
3,198,0,2,n,427,1
3,199,1,2,x,308,1
3,200,0,2,n,465,1
3,201,1,2,x,339,1
3,202,1,2,x,303,1
3,203,0,2,n,481,1
3,204,1,2,x,257,1
3,205,1,2,x,200,1
3,206,0,2,n,386,1
3,207,1,2,x,314,1
3,208,0,2,n,392,1
3,209,1,2,x,269,1
3,210,1,2,x,296,1
3,211,0,2,n,327,1
3,212,1,2,x,296,1
3,213,1,2,x,319,1
3,214,0,2,timeout,1199,timeout
3,215,1,2,x,594,1
3,216,0,2,n,319,1
3,217,1,2,x,346,1
3,218,1,2,x,338,1
3,219,0,2,n,403,1
3,220,1,2,x,389,1
3,221,0,2,n,595,1
3,222,1,2,x,239,1
3,223,1,2,x,288,1
3,224,0,2,n,382,1
3,225,1,2,x,206,1
3,226,1,2,x,287,1
3,227,0,2,n,348,1
3,228,1,2,x,248,1
3,229,0,2,x,277,0
3,230,1,2,x,245,1
3,231,1,2,x,218,1
3,232,0,2,n,431,1
3,233,1,2,x,307,1
3,1,0,3,x,990,0
3,2,1,3,x,331,1
3,3,1,3,x,359,1
3,4,0,3,n,403,1
3,5,1,3,x,271,1
3,6,1,3,x,257,1
3,7,0,3,x,235,0
3,8,1,3,x,281,1
3,9,0,3,x,235,0
3,10,1,3,x,252,1
3,11,1,3,x,356,1
3,12,0,3,n,328,1
3,13,1,3,x,275,1
3,14,1,3,x,291,1
3,15,0,3,n,431,1
3,16,1,3,x,231,1
3,17,0,3,x,188,0
3,18,1,3,x,224,1
3,19,1,3,x,339,1
3,20,0,3,n,397,1
3,21,1,3,x,265,1
3,22,0,3,n,514,1
3,23,1,3,x,307,1
3,24,1,3,x,415,1
3,25,0,3,n,471,1
3,26,1,3,x,318,1
3,27,1,3,x,446,1
3,28,0,3,n,459,1
3,29,1,3,x,427,1
3,30,0,3,n,572,1
3,31,1,3,x,454,1
3,32,1,3,x,493,1
3,33,0,3,n,496,1
3,34,1,3,x,495,1
3,35,1,3,x,498,1
3,36,0,3,n,497,1
3,37,1,3,x,360,1
3,38,0,3,n,624,1
3,39,1,3,x,583,1
3,40,1,3,x,328,1
3,41,0,3,n,1005,1
3,42,1,3,x,751,1
3,43,0,3,n,456,1
3,44,1,3,x,366,1
3,45,1,3,x,400,1
3,46,0,3,n,499,1
3,47,1,3,x,531,1
3,48,1,3,x,357,1
3,49,0,3,n,486,1
3,50,1,3,x,356,1
3,51,0,3,n,422,1
3,52,1,3,x,337,1
3,53,1,3,x,229,1
3,54,0,3,n,483,1
3,55,1,3,x,383,1
3,56,0,3,n,465,1
3,57,1,3,x,299,1
3,58,1,3,x,301,1
3,59,0,3,n,416,1
3,60,1,3,x,368,1
3,61,1,3,x,541,1
3,62,0,3,n,464,1
3,63,1,3,x,389,1
3,64,0,3,n,487,1
3,65,1,3,x,355,1
3,66,1,3,x,298,1
3,67,0,3,n,423,1
3,68,1,3,x,309,1
3,69,1,3,x,313,1
3,70,0,3,n,444,1
3,71,1,3,x,340,1
3,72,0,3,n,434,1
3,73,1,3,x,369,1
3,74,1,3,x,401,1
3,75,0,3,n,406,1
3,76,1,3,x,302,1
3,77,0,3,x,371,0
3,78,1,3,x,486,1
3,79,1,3,x,448,1
3,80,0,3,n,463,1
3,81,1,3,x,499,1
3,82,1,3,x,475,1
3,83,0,3,n,448,1
3,84,1,3,x,360,1
3,85,0,3,n,457,1
3,86,1,3,x,648,1
3,87,1,3,x,556,1
3,88,0,3,n,348,1
3,89,1,3,x,266,1
3,90,1,3,x,328,1
3,91,0,3,n,436,1
3,92,1,3,x,492,1
3,93,0,3,n,308,1
3,94,1,3,x,373,1
3,95,1,3,x,284,1
3,96,0,3,n,329,1
3,97,1,3,x,324,1
3,98,0,3,n,447,1
3,99,1,3,x,325,1
3,100,1,3,x,358,1
3,101,0,3,n,558,1
3,102,1,3,x,307,1
3,103,1,3,x,256,1
3,104,0,3,n,285,1
3,105,1,3,x,319,1
3,106,0,3,n,500,1
3,107,1,3,x,370,1
3,108,1,3,x,712,1
3,109,0,3,n,538,1
3,110,1,3,x,245,1
3,111,0,3,n,623,1
3,112,1,3,x,310,1
3,113,1,3,x,250,1
3,114,0,3,n,367,1
3,115,1,3,x,610,1
3,116,1,3,x,286,1
3,117,0,3,n,358,1
3,118,1,3,x,296,1
3,119,0,3,x,289,0
3,120,1,3,x,314,1
3,121,1,3,x,333,1
3,122,0,3,n,346,1
3,123,1,3,x,340,1
3,124,1,3,x,412,1
3,125,0,3,n,429,1
3,126,1,3,x,347,1
3,127,0,3,x,358,0
3,128,1,3,x,333,1
3,129,1,3,x,305,1
3,130,0,3,n,433,1
3,131,1,3,x,287,1
3,132,0,3,n,510,1
3,133,1,3,x,307,1
3,134,1,3,x,382,1
3,135,0,3,n,479,1
3,136,1,3,x,321,1
3,137,1,3,n,365,0
3,138,0,3,x,307,0
3,139,1,3,x,598,1
3,140,0,3,n,445,1
3,141,1,3,x,272,1
3,142,1,3,n,385,0
3,143,0,3,n,564,1
3,144,1,3,x,282,1
3,145,0,3,n,437,1
3,146,1,3,x,385,1
3,147,1,3,x,392,1
3,148,0,3,n,492,1
3,149,1,3,x,565,1
3,150,1,3,x,356,1
3,151,0,3,n,354,1
3,152,1,3,x,313,1
3,153,0,3,x,225,0
3,154,1,3,x,282,1
3,155,1,3,x,254,1
3,156,0,3,n,383,1
3,157,1,3,x,346,1
3,158,1,3,x,368,1
3,159,0,3,n,347,1
3,160,1,3,x,265,1
3,161,0,3,n,433,1
3,162,1,3,x,295,1
3,163,1,3,x,309,1
3,164,0,3,n,350,1
3,165,1,3,x,359,1
3,166,0,3,n,342,1
3,167,1,3,x,316,1
3,168,1,3,x,288,1
3,169,0,3,n,347,1
3,170,1,3,x,294,1
3,171,1,3,x,336,1
3,172,0,3,n,534,1
3,173,1,3,x,269,1
3,174,0,3,x,257,0
3,175,1,3,x,677,1
3,176,1,3,n,419,0
3,177,0,3,n,657,1
3,178,1,3,x,327,1
3,179,1,3,x,294,1
3,180,0,3,n,396,1
3,181,1,3,x,287,1
3,182,0,3,x,331,0
3,183,1,3,x,483,1
3,184,1,3,x,492,1
3,185,0,3,n,377,1
3,186,1,3,x,347,1
3,187,0,3,n,338,1
3,188,1,3,x,498,1
3,189,1,3,x,389,1
3,190,0,3,x,293,0
3,191,1,3,x,319,1
3,192,1,3,x,317,1
3,193,0,3,n,413,1
3,194,1,3,x,343,1
3,195,0,3,n,375,1
3,196,1,3,x,289,1
3,197,1,3,x,501,1
3,198,0,3,n,377,1
3,199,1,3,x,302,1
3,200,0,3,n,466,1
3,201,1,3,x,278,1
3,202,1,3,x,364,1
3,203,0,3,n,491,1
3,204,1,3,x,351,1
3,205,1,3,x,354,1
3,206,0,3,n,518,1
3,207,1,3,x,338,1
3,208,0,3,x,439,0
3,209,1,3,x,319,1
3,210,1,3,x,354,1
3,211,0,3,n,431,1
3,212,1,3,x,321,1
3,213,1,3,x,332,1
3,214,0,3,n,461,1
3,215,1,3,x,298,1
3,216,0,3,x,300,0
3,217,1,3,x,266,1
3,218,1,3,x,300,1
3,219,0,3,n,425,1
3,220,1,3,x,300,1
3,221,0,3,n,487,1
3,222,1,3,x,337,1
3,223,1,3,x,486,1
3,224,0,3,n,642,1
3,225,1,3,x,303,1
3,226,1,3,x,347,1
3,227,0,3,n,330,1
3,228,1,3,x,294,1
3,229,0,3,x,334,0
3,230,1,3,x,284,1
3,231,1,3,x,341,1
3,232,0,3,n,468,1
3,233,1,3,x,321,1
3,1,0,4,n,764,1
3,2,1,4,x,270,1
3,3,1,4,x,400,1
3,4,0,4,n,421,1
3,5,1,4,x,493,1
3,6,1,4,x,432,1
3,7,0,4,n,319,1
3,8,1,4,x,490,1
3,9,0,4,n,441,1
3,10,1,4,x,366,1
3,11,1,4,x,450,1
3,12,0,4,n,368,1
3,13,1,4,x,503,1
3,14,1,4,x,319,1
3,15,0,4,n,413,1
3,16,1,4,x,463,1
3,17,0,4,x,272,0
3,18,1,4,x,252,1
3,19,1,4,x,258,1
3,20,0,4,n,377,1
3,21,1,4,x,363,1
3,22,0,4,n,384,1
3,23,1,4,x,183,1
3,24,1,4,x,257,1
3,25,0,4,n,309,1
3,26,1,4,x,285,1
3,27,1,4,x,468,1
3,28,0,4,n,329,1
3,29,1,4,x,306,1
3,30,0,4,n,319,1
3,31,1,4,x,364,1
3,32,1,4,x,338,1
3,33,0,4,n,445,1
3,34,1,4,x,241,1
3,35,1,4,x,265,1
3,36,0,4,n,350,1
3,37,1,4,x,321,1
3,38,0,4,n,633,1
3,39,1,4,x,276,1
3,40,1,4,x,227,1
3,41,0,4,n,316,1
3,42,1,4,x,257,1
3,43,0,4,x,259,0
3,44,1,4,x,290,1
3,45,1,4,x,316,1
3,46,0,4,n,816,1
3,47,1,4,x,321,1
3,48,1,4,x,386,1
3,49,0,4,n,416,1
3,50,1,4,x,386,1
3,51,0,4,n,461,1
3,52,1,4,x,237,1
3,53,1,4,x,383,1
3,54,0,4,x,372,0
3,55,1,4,x,396,1
3,56,0,4,n,513,1
3,57,1,4,x,284,1
3,58,1,4,x,393,1
3,59,0,4,n,448,1
3,60,1,4,x,469,1
3,61,1,4,x,386,1
3,62,0,4,x,386,0
3,63,1,4,x,376,1
3,64,0,4,n,501,1
3,65,1,4,x,563,1
3,66,1,4,x,384,1
3,67,0,4,n,469,1
3,68,1,4,x,302,1
3,69,1,4,x,312,1
3,70,0,4,n,346,1
3,71,1,4,x,310,1
3,72,0,4,x,282,0
3,73,1,4,x,221,1
3,74,1,4,x,276,1
3,75,0,4,x,344,0
3,76,1,4,x,264,1
3,77,0,4,n,400,1
3,78,1,4,x,258,1
3,79,1,4,x,283,1
3,80,0,4,n,558,1
3,81,1,4,x,288,1
3,82,1,4,x,381,1
3,83,0,4,n,378,1
3,84,1,4,x,184,1
3,85,0,4,n,457,1
3,86,1,4,x,308,1
3,87,1,4,x,343,1
3,88,0,4,n,592,1
3,89,1,4,x,202,1
3,90,1,4,x,390,1
3,91,0,4,n,370,1
3,92,1,4,x,289,1
3,93,0,4,n,273,1
3,94,1,4,x,103,1
3,95,1,4,x,224,1
3,96,0,4,n,247,1
3,97,1,4,x,252,1
3,98,0,4,n,324,1
3,99,1,4,x,251,1
3,100,1,4,x,262,1
3,101,0,4,n,275,1
3,102,1,4,x,209,1
3,103,1,4,n,289,0
3,104,0,4,n,330,1
3,105,1,4,x,18,1
3,106,0,4,n,316,1
3,107,1,4,x,241,1
3,108,1,4,x,384,1
3,109,0,4,n,296,1
3,110,1,4,x,256,1
3,111,0,4,x,275,0
3,112,1,4,x,250,1
3,113,1,4,x,280,1
3,114,0,4,n,466,1
3,115,1,4,x,300,1
3,116,1,4,x,512,1
3,117,0,4,n,337,1
3,118,1,4,x,636,1
3,119,0,4,n,360,1
3,120,1,4,x,221,1
3,121,1,4,x,190,1
3,122,0,4,n,286,1
3,123,1,4,x,131,1
3,124,1,4,x,379,1
3,125,0,4,n,369,1
3,126,1,4,x,169,1
3,127,0,4,n,461,1
3,128,1,4,x,69,1
3,129,1,4,x,292,1
3,130,0,4,n,348,1
3,131,1,4,x,142,1
3,132,0,4,x,61,0
3,133,1,4,x,271,1
3,134,1,4,x,310,1
3,135,0,4,n,311,1
3,136,1,4,x,463,1
3,137,1,4,x,356,1
3,138,0,4,n,304,1
3,139,1,4,x,172,1
3,140,0,4,x,284,0
3,141,1,4,x,236,1
3,142,1,4,x,331,1
3,143,0,4,n,425,1
3,144,1,4,x,303,1
3,145,0,4,n,583,1
3,146,1,4,x,349,1
3,147,1,4,x,431,1
3,148,0,4,n,333,1
3,149,1,4,x,291,1
3,150,1,4,x,375,1
3,151,0,4,n,353,1
3,152,1,4,x,344,1
3,153,0,4,n,322,1
3,154,1,4,x,671,1
3,155,1,4,x,85,1
3,156,0,4,n,396,1
3,157,1,4,x,277,1
3,158,1,4,x,329,1
3,159,0,4,n,338,1
3,160,1,4,x,303,1
3,161,0,4,n,309,1
3,162,1,4,x,176,1
3,163,1,4,x,266,1
3,164,0,4,n,387,1
3,165,1,4,x,218,1
3,166,0,4,x,116,0
3,167,1,4,x,212,1
3,168,1,4,x,230,1
3,169,0,4,n,290,1
3,170,1,4,x,266,1
3,171,1,4,x,325,1
3,172,0,4,n,393,1
3,173,1,4,x,346,1
3,174,0,4,n,466,1
3,175,1,4,x,300,1
3,176,1,4,x,210,1
3,177,0,4,n,616,1
3,178,1,4,x,360,1
3,179,1,4,x,172,1
3,180,0,4,n,271,1
3,181,1,4,x,304,1
3,182,0,4,n,323,1
3,183,1,4,x,331,1
3,184,1,4,x,301,1
3,185,0,4,n,391,1
3,186,1,4,x,438,1
3,187,0,4,x,251,0
3,188,1,4,x,460,1
3,189,1,4,x,348,1
3,190,0,4,n,433,1
3,191,1,4,x,317,1
3,192,1,4,x,367,1
3,193,0,4,n,314,1
3,194,1,4,x,322,1
3,195,0,4,n,433,1
3,196,1,4,x,306,1
3,197,1,4,x,320,1
3,198,0,4,n,690,1
3,199,1,4,x,310,1
3,200,0,4,x,356,0
3,201,1,4,x,299,1
3,202,1,4,x,289,1
3,203,0,4,n,334,1
3,204,1,4,x,200,1
3,205,1,4,x,297,1
3,206,0,4,n,308,1
3,207,1,4,x,277,1
3,208,0,4,x,310,0
3,209,1,4,x,184,1
3,210,1,4,x,404,1
3,211,0,4,n,710,1
3,212,1,4,x,303,1
3,213,1,4,x,341,1
3,214,0,4,n,291,1
3,215,1,4,x,317,1
3,216,0,4,n,336,1
3,217,1,4,x,317,1
3,218,1,4,x,483,1
3,219,0,4,n,324,1
3,220,1,4,x,291,1
3,221,0,4,n,395,1
3,222,1,4,x,300,1
3,223,1,4,x,435,1
3,224,0,4,n,383,1
3,225,1,4,x,262,1
3,226,1,4,x,338,1
3,227,0,4,n,343,1
3,228,1,4,x,295,1
3,229,0,4,n,376,1
3,230,1,4,x,359,1
3,231,1,4,x,390,1
3,232,0,4,n,324,1
3,233,1,4,x,312,1
3,1,0,5,x,771,0
3,2,1,5,x,237,1
3,3,1,5,x,383,1
3,4,0,5,x,346,0
3,5,1,5,x,329,1
3,6,1,5,x,333,1
3,7,0,5,n,483,1
3,8,1,5,x,316,1
3,9,0,5,n,329,1
3,10,1,5,x,267,1
3,11,1,5,n,288,0
3,12,0,5,n,333,1
3,13,1,5,x,424,1
3,14,1,5,x,363,1
3,15,0,5,n,393,1
3,16,1,5,x,319,1
3,17,0,5,n,560,1
3,18,1,5,x,347,1
3,19,1,5,x,314,1
3,20,0,5,n,316,1
3,21,1,5,x,338,1
3,22,0,5,x,321,0
3,23,1,5,timeout,1200,timeout
3,24,1,5,x,362,1
3,25,0,5,n,318,1
3,26,1,5,x,333,1
3,27,1,5,x,589,1
3,28,0,5,n,364,1
3,29,1,5,x,335,1
3,30,0,5,n,355,1
3,31,1,5,x,346,1
3,32,1,5,x,246,1
3,33,0,5,n,308,1
3,34,1,5,x,338,1
3,35,1,5,x,303,1
3,36,0,5,n,279,1
3,37,1,5,x,347,1
3,38,0,5,n,331,1
3,39,1,5,x,332,1
3,40,1,5,x,391,1
3,41,0,5,n,262,1
3,42,1,5,x,251,1
3,43,0,5,n,496,1
3,44,1,5,x,337,1
3,45,1,5,x,344,1
3,46,0,5,n,319,1
3,47,1,5,x,355,1
3,48,1,5,x,480,1
3,49,0,5,n,558,1
3,50,1,5,x,376,1
3,51,0,5,n,417,1
3,52,1,5,x,280,1
3,53,1,5,x,349,1
3,54,0,5,n,382,1
3,55,1,5,x,309,1
3,56,0,5,x,252,0
3,57,1,5,x,292,1
3,58,1,5,x,294,1
3,59,0,5,n,429,1
3,60,1,5,x,335,1
3,61,1,5,x,288,1
3,62,0,5,n,407,1
3,63,1,5,x,293,1
3,64,0,5,n,550,1
3,65,1,5,x,252,1
3,66,1,5,x,381,1
3,67,0,5,n,334,1
3,68,1,5,x,301,1
3,69,1,5,x,257,1
3,70,0,5,n,341,1
3,71,1,5,x,337,1
3,72,0,5,x,292,0
3,73,1,5,x,295,1
3,74,1,5,x,33,1
3,75,0,5,n,409,1
3,76,1,5,x,280,1
3,77,0,5,n,397,1
3,78,1,5,x,322,1
3,79,1,5,x,404,1
3,80,0,5,n,453,1
3,81,1,5,x,332,1
3,82,1,5,x,533,1
3,83,0,5,n,354,1
3,84,1,5,x,337,1
3,85,0,5,n,325,1
3,86,1,5,x,293,1
3,87,1,5,timeout,1199,timeout
3,88,0,5,n,588,1
3,89,1,5,x,467,1
3,90,1,5,x,308,1
3,91,0,5,n,328,1
3,92,1,5,x,256,1
3,93,0,5,n,445,1
3,94,1,5,x,267,1
3,95,1,5,x,395,1
3,96,0,5,n,717,1
3,97,1,5,x,282,1
3,98,0,5,n,413,1
3,99,1,5,x,249,1
3,100,1,5,x,22,1
3,101,0,5,n,260,1
3,102,1,5,x,302,1
3,103,1,5,x,302,1
3,104,0,5,n,258,1
3,105,1,5,x,205,1
3,106,0,5,n,316,1
3,107,1,5,x,247,1
3,108,1,5,x,247,1
3,109,0,5,n,294,1
3,110,1,5,x,148,1
3,111,0,5,x,246,0
3,112,1,5,x,315,1
3,113,1,5,x,132,1
3,114,0,5,n,303,1
3,115,1,5,x,141,1
3,116,1,5,n,350,0
3,117,0,5,n,454,1
3,118,1,5,x,131,1
3,119,0,5,n,427,1
3,120,1,5,x,289,1
3,121,1,5,x,348,1
3,122,0,5,n,287,1
3,123,1,5,x,164,1
3,124,1,5,x,316,1
3,125,0,5,n,268,1
3,126,1,5,x,240,1
3,127,0,5,n,294,1
3,128,1,5,x,311,1
3,129,1,5,x,416,1
3,130,0,5,n,263,1
3,131,1,5,x,233,1
3,132,0,5,n,418,1
3,133,1,5,x,266,1
3,134,1,5,x,675,1
3,135,0,5,n,431,1
3,136,1,5,x,273,1
3,137,1,5,x,167,1
3,138,0,5,n,178,1
3,139,1,5,x,70,1
3,140,0,5,x,259,0
3,141,1,5,x,148,1
3,142,1,5,x,581,1
3,143,0,5,n,569,1
3,144,1,5,x,264,1
3,145,0,5,x,388,0
3,146,1,5,x,307,1
3,147,1,5,x,342,1
3,148,0,5,n,450,1
3,149,1,5,x,310,1
3,150,1,5,x,721,1
3,151,0,5,n,318,1
3,152,1,5,x,272,1
3,153,0,5,n,439,1
3,154,1,5,x,333,1
3,155,1,5,x,433,1
3,156,0,5,n,462,1
3,157,1,5,x,315,1
3,158,1,5,x,355,1
3,159,0,5,n,491,1
3,160,1,5,x,327,1
3,161,0,5,n,719,1
3,162,1,5,x,278,1
3,163,1,5,x,358,1
3,164,0,5,n,268,1
3,165,1,5,x,217,1
3,166,0,5,n,368,1
3,167,1,5,x,301,1
3,168,1,5,x,377,1
3,169,0,5,n,246,1
3,170,1,5,x,10,1
3,171,1,5,x,353,1
3,172,0,5,n,473,1
3,173,1,5,x,317,1
3,174,0,5,n,428,1
3,175,1,5,x,508,1
3,176,1,5,x,390,1
3,177,0,5,n,340,1
3,178,1,5,x,240,1
3,179,1,5,x,304,1
3,180,0,5,n,279,1
3,181,1,5,x,249,1
3,182,0,5,x,294,0
3,183,1,5,x,313,1
3,184,1,5,x,185,1
3,185,0,5,n,276,1
3,186,1,5,x,168,1
3,187,0,5,n,517,1
3,188,1,5,x,244,1
3,189,1,5,x,243,1
3,190,0,5,n,200,1
3,191,1,5,x,173,1
3,192,1,5,x,234,1
3,193,0,5,n,260,1
3,194,1,5,x,273,1
3,195,0,5,n,311,1
3,196,1,5,x,157,1
3,197,1,5,x,261,1
3,198,0,5,n,411,1
3,199,1,5,x,115,1
3,200,0,5,x,257,0
3,201,1,5,x,116,1
3,202,1,5,x,70,1
3,203,0,5,n,275,1
3,204,1,5,x,55,1
3,205,1,5,x,300,1
3,206,0,5,n,316,1
3,207,1,5,x,71,1
3,208,0,5,x,186,0
3,209,1,5,x,128,1
3,210,1,5,x,295,1
3,211,0,5,n,322,1
3,212,1,5,x,254,1
3,213,1,5,x,317,1
3,214,0,5,n,335,1
3,215,1,5,x,289,1
3,216,0,5,n,474,1
3,217,1,5,x,202,1
3,218,1,5,x,250,1
3,219,0,5,n,200,1
3,220,1,5,x,329,1
3,221,0,5,n,612,1
3,222,1,5,x,155,1
3,223,1,5,x,412,1
3,224,0,5,n,433,1
3,225,1,5,x,231,1
3,226,1,5,n,414,0
3,227,0,5,n,354,1
3,228,1,5,x,97,1
3,229,0,5,n,489,1
3,230,1,5,x,305,1
3,231,1,5,x,276,1
3,232,0,5,n,291,1
3,233,1,5,x,185,1
4,1,0,1,n,1159,1
4,2,1,1,x,328,1
4,3,1,1,x,307,1
4,4,0,1,n,329,1
4,5,1,1,x,319,1
4,6,1,1,x,318,1
4,7,0,1,n,327,1
4,8,1,1,x,266,1
4,9,0,1,n,296,1
4,10,1,1,x,276,1
4,11,1,1,x,524,1
4,12,0,1,n,352,1
4,13,1,1,x,280,1
4,14,1,1,x,338,1
4,15,0,1,x,338,0
4,16,1,1,x,420,1
4,17,0,1,n,380,1
4,18,1,1,x,378,1
4,19,1,1,x,356,1
4,20,0,1,n,322,1
4,21,1,1,x,311,1
4,22,0,1,n,308,1
4,23,1,1,x,299,1
4,24,1,1,x,358,1
4,25,0,1,n,351,1
4,26,1,1,x,299,1
4,27,1,1,x,421,1
4,28,0,1,n,369,1
4,29,1,1,x,364,1
4,30,0,1,n,410,1
4,31,1,1,x,297,1
4,32,1,1,x,333,1
4,33,0,1,n,386,1
4,34,1,1,x,289,1
4,35,1,1,x,318,1
4,36,0,1,x,356,0
4,37,1,1,x,463,1
4,38,0,1,n,489,1
4,39,1,1,x,292,1
4,40,1,1,x,306,1
4,41,0,1,n,371,1
4,42,1,1,n,356,0
4,43,0,1,n,461,1
4,44,1,1,x,355,1
4,45,1,1,x,333,1
4,46,0,1,n,360,1
4,47,1,1,x,335,1
4,48,1,1,x,388,1
4,49,0,1,n,390,1
4,50,1,1,x,377,1
4,51,0,1,n,324,1
4,52,1,1,x,379,1
4,53,1,1,x,387,1
4,54,0,1,n,362,1
4,55,1,1,x,327,1
4,56,0,1,x,345,0
4,57,1,1,x,344,1
4,58,1,1,x,337,1
4,59,0,1,n,610,1
4,60,1,1,x,291,1
4,61,1,1,x,363,1
4,62,0,1,n,458,1
4,63,1,1,x,316,1
4,64,0,1,n,371,1
4,65,1,1,x,297,1
4,66,1,1,x,337,1
4,67,0,1,n,377,1
4,68,1,1,x,389,1
4,69,1,1,x,349,1
4,70,0,1,n,377,1
4,71,1,1,x,323,1
4,72,0,1,n,352,1
4,73,1,1,x,287,1
4,74,1,1,x,338,1
4,75,0,1,n,371,1
4,76,1,1,x,461,1
4,77,0,1,n,677,1
4,78,1,1,x,316,1
4,79,1,1,x,332,1
4,80,0,1,n,369,1
4,81,1,1,x,274,1
4,82,1,1,x,306,1
4,83,0,1,n,504,1
4,84,1,1,x,290,1
4,85,0,1,n,363,1
4,86,1,1,x,294,1
4,87,1,1,x,287,1
4,88,0,1,x,308,0
4,89,1,1,x,504,1
4,90,1,1,n,430,0
4,91,0,1,n,480,1
4,92,1,1,x,350,1
4,93,0,1,n,382,1
4,94,1,1,x,328,1
4,95,1,1,x,358,1
4,96,0,1,n,374,1
4,97,1,1,x,470,1
4,98,0,1,n,421,1
4,99,1,1,x,283,1
4,100,1,1,x,331,1
4,101,0,1,n,404,1
4,102,1,1,x,461,1
4,103,1,1,x,338,1
4,104,0,1,n,412,1
4,105,1,1,x,248,1
4,106,0,1,n,440,1
4,107,1,1,x,313,1
4,108,1,1,x,455,1
4,109,0,1,n,378,1
4,110,1,1,x,421,1
4,111,0,1,x,323,0
4,112,1,1,x,450,1
4,113,1,1,x,393,1
4,114,0,1,n,401,1
4,115,1,1,x,520,1
4,116,1,1,x,370,1
4,117,0,1,n,431,1
4,118,1,1,x,295,1
4,119,0,1,n,388,1
4,120,1,1,x,302,1
4,121,1,1,x,367,1
4,122,0,1,n,299,1
4,123,1,1,x,305,1
4,124,1,1,x,352,1
4,125,0,1,n,325,1
4,126,1,1,x,280,1
4,127,0,1,n,378,1
4,128,1,1,x,267,1
4,129,1,1,x,332,1
4,130,0,1,n,322,1
4,131,1,1,x,290,1
4,132,0,1,x,283,0
4,133,1,1,x,443,1
4,134,1,1,x,343,1
4,135,0,1,n,383,1
4,136,1,1,x,346,1
4,137,1,1,x,310,1
4,138,0,1,n,367,1
4,139,1,1,x,373,1
4,140,0,1,n,384,1
4,141,1,1,x,319,1
4,142,1,1,x,347,1
4,143,0,1,n,371,1
4,144,1,1,x,300,1
4,145,0,1,n,375,1
4,146,1,1,x,265,1
4,147,1,1,x,366,1
4,148,0,1,n,395,1
4,149,1,1,x,251,1
4,150,1,1,x,310,1
4,151,0,1,n,400,1
4,152,1,1,x,251,1
4,153,0,1,n,378,1
4,154,1,1,x,224,1
4,155,1,1,x,283,1
4,156,0,1,n,381,1
4,157,1,1,x,236,1
4,158,1,1,x,329,1
4,159,0,1,n,424,1
4,160,1,1,x,224,1
4,161,0,1,x,254,0
4,162,1,1,x,335,1
4,163,1,1,x,387,1
4,164,0,1,n,389,1
4,165,1,1,x,301,1
4,166,0,1,n,436,1
4,167,1,1,x,250,1
4,168,1,1,x,338,1
4,169,0,1,n,429,1
4,170,1,1,x,289,1
4,171,1,1,x,302,1
4,172,0,1,n,338,1
4,173,1,1,x,260,1
4,174,0,1,n,385,1
4,175,1,1,x,245,1
4,176,1,1,x,256,1
4,177,0,1,n,381,1
4,178,1,1,x,251,1
4,179,1,1,x,211,1
4,180,0,1,n,387,1
4,181,1,1,x,240,1
4,182,0,1,x,261,0
4,183,1,1,x,395,1
4,184,1,1,x,385,1
4,185,0,1,n,318,1
4,186,1,1,x,355,1
4,187,0,1,n,370,1
4,188,1,1,x,318,1
4,189,1,1,x,348,1
4,190,0,1,n,355,1
4,191,1,1,x,241,1
4,192,1,1,x,362,1
4,193,0,1,n,359,1
4,194,1,1,x,271,1
4,195,0,1,x,320,0
4,196,1,1,x,348,1
4,197,1,1,x,391,1
4,198,0,1,n,366,1
4,199,1,1,x,284,1
4,200,0,1,n,377,1
4,201,1,1,x,283,1
4,202,1,1,x,374,1
4,203,0,1,n,333,1
4,204,1,1,x,255,1
4,205,1,1,x,289,1
4,206,0,1,n,309,1
4,207,1,1,x,240,1
4,208,0,1,x,312,0
4,209,1,1,x,496,1
4,210,1,1,x,410,1
4,211,0,1,n,376,1
4,212,1,1,x,306,1
4,213,1,1,x,408,1
4,214,0,1,n,384,1
4,215,1,1,x,328,1
4,216,0,1,n,336,1
4,217,1,1,x,299,1
4,218,1,1,x,406,1
4,219,0,1,n,391,1
4,220,1,1,x,382,1
4,221,0,1,n,351,1
4,222,1,1,x,296,1
4,223,1,1,x,510,1
4,224,0,1,n,366,1
4,225,1,1,x,655,1
4,226,1,1,x,504,1
4,227,0,1,n,278,1
4,228,1,1,x,365,1
4,229,0,1,n,417,1
4,230,1,1,x,302,1
4,231,1,1,x,406,1
4,232,0,1,n,345,1
4,233,1,1,x,277,1
4,1,0,2,n,712,1
4,2,1,2,x,358,1
4,3,1,2,x,342,1
4,4,0,2,n,347,1
4,5,1,2,x,295,1
4,6,1,2,x,348,1
4,7,0,2,n,331,1
4,8,1,2,x,219,1
4,9,0,2,n,344,1
4,10,1,2,x,228,1
4,11,1,2,x,347,1
4,12,0,2,n,279,1
4,13,1,2,x,248,1
4,14,1,2,x,351,1
4,15,0,2,n,277,1
4,16,1,2,x,257,1
4,17,0,2,n,372,1
4,18,1,2,x,229,1
4,19,1,2,x,357,1
4,20,0,2,n,282,1
4,21,1,2,x,216,1
4,22,0,2,x,264,0
4,23,1,2,x,267,1
4,24,1,2,x,361,1
4,25,0,2,n,357,1
4,26,1,2,x,275,1
4,27,1,2,x,284,1
4,28,0,2,n,376,1
4,29,1,2,x,255,1
4,30,0,2,n,361,1
4,31,1,2,x,237,1
4,32,1,2,x,290,1
4,33,0,2,n,358,1
4,34,1,2,x,283,1
4,35,1,2,x,276,1
4,36,0,2,n,383,1
4,37,1,2,x,277,1
4,38,0,2,x,242,0
4,39,1,2,x,424,1
4,40,1,2,x,344,1
4,41,0,2,n,266,1
4,42,1,2,x,296,1
4,43,0,2,n,374,1
4,44,1,2,x,213,1
4,45,1,2,x,350,1
4,46,0,2,n,271,1
4,47,1,2,x,279,1
4,48,1,2,x,335,1
4,49,0,2,n,358,1
4,50,1,2,x,244,1
4,51,0,2,n,291,1
4,52,1,2,x,276,1
4,53,1,2,x,382,1
4,54,0,2,n,360,1
4,55,1,2,x,285,1
4,56,0,2,n,267,1
4,57,1,2,x,267,1
4,58,1,2,x,282,1
4,59,0,2,n,326,1
4,60,1,2,x,264,1
4,61,1,2,x,369,1
4,62,0,2,n,398,1
4,63,1,2,x,288,1
4,64,0,2,n,379,1
4,65,1,2,x,278,1
4,66,1,2,x,327,1
4,67,0,2,n,244,1
4,68,1,2,x,286,1
4,69,1,2,x,305,1
4,70,0,2,n,360,1
4,71,1,2,x,316,1
4,72,0,2,n,560,1
4,73,1,2,x,246,1
4,74,1,2,x,405,1
4,75,0,2,n,381,1
4,76,1,2,x,278,1
4,77,0,2,x,257,0
4,78,1,2,x,313,1
4,79,1,2,x,357,1
4,80,0,2,n,382,1
4,81,1,2,x,271,1
4,82,1,2,x,351,1
4,83,0,2,n,263,1
4,84,1,2,x,299,1
4,85,0,2,n,386,1
4,86,1,2,x,248,1
4,87,1,2,x,290,1
4,88,0,2,n,223,1
4,89,1,2,x,290,1
4,90,1,2,x,400,1
4,91,0,2,n,257,1
4,92,1,2,x,282,1
4,93,0,2,n,410,1
4,94,1,2,x,252,1
4,95,1,2,x,388,1
4,96,0,2,n,220,1
4,97,1,2,x,249,1
4,98,0,2,n,311,1
4,99,1,2,x,261,1
4,100,1,2,x,279,1
4,101,0,2,n,246,1
4,102,1,2,x,258,1
4,103,1,2,x,315,1
4,104,0,2,n,220,1
4,105,1,2,x,240,1
4,106,0,2,n,280,1
4,107,1,2,x,267,1
4,108,1,2,x,285,1
4,109,0,2,n,218,1
4,110,1,2,x,285,1
4,111,0,2,n,390,1
4,112,1,2,x,249,1
4,113,1,2,x,350,1
4,114,0,2,n,236,1
4,115,1,2,x,300,1
4,116,1,2,x,351,1
4,117,0,2,n,227,1
4,118,1,2,x,273,1
4,119,0,2,n,412,1
4,120,1,2,x,125,1
4,121,1,2,x,299,1
4,122,0,2,n,379,1
4,123,1,2,x,277,1
4,124,1,2,x,276,1
4,125,0,2,n,161,1
4,126,1,2,x,288,1
4,127,0,2,n,400,1
4,128,1,2,x,253,1
4,129,1,2,x,249,1
4,130,0,2,n,227,1
4,131,1,2,x,244,1
4,132,0,2,n,379,1
4,133,1,2,x,155,1
4,134,1,2,x,460,1
4,135,0,2,n,227,1
4,136,1,2,x,266,1
4,137,1,2,x,316,1
4,138,0,2,n,208,1
4,139,1,2,x,94,1
4,140,0,2,n,275,1
4,141,1,2,x,284,1
4,142,1,2,x,424,1
4,143,0,2,n,222,1
4,144,1,2,x,273,1
4,145,0,2,n,292,1
4,146,1,2,x,160,1
4,147,1,2,x,236,1
4,148,0,2,n,167,1
4,149,1,2,x,286,1
4,150,1,2,x,336,1
4,151,0,2,n,136,1
4,152,1,2,x,239,1
4,153,0,2,n,374,1
4,154,1,2,x,227,1
4,155,1,2,x,317,1
4,156,0,2,n,196,1
4,157,1,2,x,260,1
4,158,1,2,x,271,1
4,159,0,2,n,230,1
4,160,1,2,x,268,1
4,161,0,2,n,259,1
4,162,1,2,x,130,1
4,163,1,2,x,269,1
4,164,0,2,n,240,1
4,165,1,2,x,216,1
4,166,0,2,n,387,1
4,167,1,2,x,139,1
4,168,1,2,x,352,1
4,169,0,2,n,174,1
4,170,1,2,x,272,1
4,171,1,2,x,292,1
4,172,0,2,n,155,1
4,173,1,2,x,276,1
4,174,0,2,n,246,1
4,175,1,2,x,198,1
4,176,1,2,x,224,1
4,177,0,2,n,93,1
4,178,1,2,x,268,1
4,179,1,2,x,279,1
4,180,0,2,n,174,1
4,181,1,2,x,213,1
4,182,0,2,n,358,1
4,183,1,2,x,235,1
4,184,1,2,x,245,1
4,185,0,2,n,77,1
4,186,1,2,x,235,1
4,187,0,2,n,364,1
4,188,1,2,x,130,1
4,189,1,2,x,299,1
4,190,0,2,n,212,1
4,191,1,2,x,143,1
4,192,1,2,x,336,1
4,193,0,2,n,138,1
4,194,1,2,x,256,1
4,195,0,2,n,443,1
4,196,1,2,x,285,1
4,197,1,2,x,327,1
4,198,0,2,n,136,1
4,199,1,2,x,246,1
4,200,0,2,x,237,0
4,201,1,2,x,290,1
4,202,1,2,x,323,1
4,203,0,2,n,277,1
4,204,1,2,x,278,1
4,205,1,2,x,278,1
4,206,0,2,n,101,1
4,207,1,2,x,287,1
4,208,0,2,n,379,1
4,209,1,2,x,160,1
4,210,1,2,x,266,1
4,211,0,2,n,100,1
4,212,1,2,x,276,1
4,213,1,2,x,295,1
4,214,0,2,n,94,1
4,215,1,2,x,286,1
4,216,0,2,n,370,1
4,217,1,2,x,84,1
4,218,1,2,x,286,1
4,219,0,2,n,59,1
4,220,1,2,x,256,1
4,221,0,2,n,590,1
4,222,1,2,x,89,1
4,223,1,2,x,315,1
4,224,0,2,n,191,1
4,225,1,2,x,279,1
4,226,1,2,x,319,1
4,227,0,2,n,68,1
4,228,1,2,x,237,1
4,229,0,2,n,266,1
4,230,1,2,x,191,1
4,231,1,2,x,255,1
4,232,0,2,n,270,1
4,233,1,2,x,45,1
4,1,0,3,n,582,1
4,2,1,3,x,329,1
4,3,1,3,x,366,1
4,4,0,3,n,454,1
4,5,1,3,x,267,1
4,6,1,3,x,290,1
4,7,0,3,n,221,1
4,8,1,3,x,195,1
4,9,0,3,n,318,1
4,10,1,3,x,97,1
4,11,1,3,x,276,1
4,12,0,3,n,225,1
4,13,1,3,x,143,1
4,14,1,3,x,349,1
4,15,0,3,n,105,1
4,16,1,3,x,231,1
4,17,0,3,n,381,1
4,18,1,3,x,95,1
4,19,1,3,x,243,1
4,20,0,3,n,118,1
4,21,1,3,x,142,1
4,22,0,3,n,395,1
4,23,1,3,x,208,1
4,24,1,3,x,254,1
4,25,0,3,n,144,1
4,26,1,3,x,248,1
4,27,1,3,n,220,0
4,28,0,3,n,601,1
4,29,1,3,x,235,1
4,30,0,3,n,364,1
4,31,1,3,x,100,1
4,32,1,3,x,265,1
4,33,0,3,n,207,1
4,34,1,3,x,241,1
4,35,1,3,x,254,1
4,36,0,3,n,171,1
4,37,1,3,x,155,1
4,38,0,3,n,222,1
4,39,1,3,x,111,1
4,40,1,3,x,212,1
4,41,0,3,n,159,1
4,42,1,3,x,195,1
4,43,0,3,x,233,0
4,44,1,3,x,291,1
4,45,1,3,x,266,1
4,46,0,3,n,146,1
4,47,1,3,x,208,1
4,48,1,3,x,315,1
4,49,0,3,n,229,1
4,50,1,3,x,255,1
4,51,0,3,n,373,1
4,52,1,3,x,140,1
4,53,1,3,x,283,1
4,54,0,3,n,132,1
4,55,1,3,x,190,1
4,56,0,3,x,322,0
4,57,1,3,x,421,1
4,58,1,3,x,321,1
4,59,0,3,n,196,1
4,60,1,3,x,238,1
4,61,1,3,x,292,1
4,62,0,3,n,110,1
4,63,1,3,x,285,1
4,64,0,3,n,359,1
4,65,1,3,x,174,1
4,66,1,3,x,249,1
4,67,0,3,n,64,1
4,68,1,3,x,241,1
4,69,1,3,x,319,1
4,70,0,3,n,8,1
4,71,1,3,x,778,1
4,72,0,3,n,476,1
4,73,1,3,x,298,1
4,74,1,3,x,341,1
4,75,0,3,n,354,1
4,76,1,3,x,166,1
4,77,0,3,n,361,1
4,78,1,3,x,248,1
4,79,1,3,x,310,1
4,80,0,3,n,231,1
4,81,1,3,x,270,1
4,82,1,3,x,261,1
4,83,0,3,n,265,1
4,84,1,3,x,207,1
4,85,0,3,n,261,1
4,86,1,3,x,178,1
4,87,1,3,x,234,1
4,88,0,3,n,146,1
4,89,1,3,x,158,1
4,90,1,3,x,253,1
4,91,0,3,n,106,1
4,92,1,3,x,82,1
4,93,0,3,n,257,1
4,94,1,3,x,152,1
4,95,1,3,x,238,1
4,96,0,3,n,27,1
4,97,1,3,x,256,1
4,98,0,3,n,372,1
4,99,1,3,x,120,1
4,100,1,3,x,266,1
4,101,0,3,n,187,1
4,102,1,3,x,161,1
4,103,1,3,x,262,1
4,104,0,3,n,45,1
4,105,1,3,x,250,1
4,106,0,3,n,242,1
4,107,1,3,x,144,1
4,108,1,3,x,246,1
4,109,0,3,n,560,1
4,110,1,3,x,255,1
4,111,0,3,n,267,1
4,112,1,3,x,106,1
4,113,1,3,x,253,1
4,114,0,3,n,251,1
4,115,1,3,x,149,1
4,116,1,3,x,256,1
4,117,0,3,n,212,1
4,118,1,3,x,23,1
4,119,0,3,n,261,1
4,120,1,3,x,193,1
4,121,1,3,x,236,1
4,122,0,3,n,89,1
4,123,1,3,x,221,1
4,124,1,3,x,247,1
4,125,0,3,n,121,1
4,126,1,3,x,157,1
4,127,0,3,x,240,0
4,128,1,3,x,272,1
4,129,1,3,x,302,1
4,130,0,3,n,289,1
4,131,1,3,x,248,1
4,132,0,3,n,278,1
4,133,1,3,x,137,1
4,134,1,3,x,216,1
4,135,0,3,n,135,1
4,136,1,3,x,106,1
4,137,1,3,x,218,1
4,138,0,3,n,86,1
4,139,1,3,x,130,1
4,140,0,3,n,184,1
4,141,1,3,x,135,1
4,142,1,3,x,228,1
4,143,0,3,n,174,1
4,144,1,3,x,92,1
4,145,0,3,n,265,1
4,146,1,3,x,146,1
4,147,1,3,x,250,1
4,148,0,3,n,194,1
4,149,1,3,x,83,1
4,150,1,3,x,216,1
4,151,0,3,n,106,1
4,152,1,3,x,85,1
4,153,0,3,n,237,1
4,154,1,3,x,87,1
4,155,1,3,x,229,1
4,156,0,3,n,128,1
4,157,1,3,x,152,1
4,158,1,3,n,239,0
4,159,0,3,n,502,1
4,160,1,3,x,99,1
4,161,0,3,n,309,1
4,162,1,3,x,142,1
4,163,1,3,x,344,1
4,164,0,3,n,226,1
4,165,1,3,x,76,1
4,166,0,3,x,235,0
4,167,1,3,x,266,1
4,168,1,3,x,275,1
4,169,0,3,n,192,1
4,170,1,3,x,205,1
4,171,1,3,x,337,1
4,172,0,3,n,151,1
4,173,1,3,x,191,1
4,174,0,3,n,424,1
4,175,1,3,x,114,1
4,176,1,3,x,205,1
4,177,0,3,n,171,1
4,178,1,3,x,130,1
4,179,1,3,x,234,1
4,180,0,3,n,185,1
4,181,1,3,x,70,1
4,182,0,3,x,246,0
4,183,1,3,x,257,1
4,184,1,3,x,283,1
4,185,0,3,n,366,1
4,186,1,3,x,144,1
4,187,0,3,n,301,1
4,188,1,3,x,105,1
4,189,1,3,x,198,1
4,190,0,3,n,79,1
4,191,1,3,x,229,1
4,192,1,3,x,283,1
4,193,0,3,n,116,1
4,194,1,3,x,140,1
4,195,0,3,n,394,1
4,196,1,3,x,52,1
4,197,1,3,x,308,1
4,198,0,3,n,233,1
4,199,1,3,x,142,1
4,200,0,3,n,275,1
4,201,1,3,x,94,1
4,202,1,3,x,201,1
4,203,0,3,n,108,1
4,204,1,3,x,163,1
4,205,1,3,x,315,1
4,206,0,3,n,160,1
4,207,1,3,x,247,1
4,208,0,3,x,245,0
4,209,1,3,x,259,1
4,210,1,3,x,354,1
4,211,0,3,n,240,1
4,212,1,3,x,243,1
4,213,1,3,x,372,1
4,214,0,3,n,82,1
4,215,1,3,x,158,1
4,216,0,3,n,262,1
4,217,1,3,x,136,1
4,218,1,3,x,219,1
4,219,0,3,n,94,1
4,220,1,3,x,149,1
4,221,0,3,n,232,1
4,222,1,3,x,87,1
4,223,1,3,x,178,1
4,224,0,3,n,73,1
4,225,1,3,x,173,1
4,226,1,3,x,322,1
4,227,0,3,n,181,1
4,228,1,3,x,96,1
4,229,0,3,n,177,1
4,230,1,3,x,358,1
4,231,1,3,x,228,1
4,232,0,3,n,269,1
4,233,1,3,x,97,1
4,1,0,4,n,427,1
4,2,1,4,x,315,1
4,3,1,4,x,263,1
4,4,0,4,n,211,1
4,5,1,4,x,219,1
4,6,1,4,x,337,1
4,7,0,4,n,135,1
4,8,1,4,x,217,1
4,9,0,4,n,228,1
4,10,1,4,x,177,1
4,11,1,4,x,242,1
4,12,0,4,n,64,1
4,13,1,4,x,176,1
4,14,1,4,x,184,1
4,15,0,4,n,137,1
4,16,1,4,x,134,1
4,17,0,4,n,208,1
4,18,1,4,x,233,1
4,19,1,4,x,156,1
4,20,0,4,n,84,1
4,21,1,4,x,152,1
4,22,0,4,x,234,0
4,23,1,4,x,207,1
4,24,1,4,x,142,1
4,25,0,4,n,122,1
4,26,1,4,x,139,1
4,27,1,4,x,242,1
4,28,0,4,n,97,1
4,29,1,4,x,68,1
4,30,0,4,n,228,1
4,31,1,4,x,82,1
4,32,1,4,x,246,1
4,33,0,4,n,107,1
4,34,1,4,x,89,1
4,35,1,4,x,321,1
4,36,0,4,n,51,1
4,37,1,4,x,122,1
4,38,0,4,n,252,1
4,39,1,4,x,73,1
4,40,1,4,x,222,1
4,41,0,4,n,100,1
4,42,1,4,x,212,1
4,43,0,4,x,228,0
4,44,1,4,x,277,1
4,45,1,4,x,317,1
4,46,0,4,x,297,0
4,47,1,4,x,465,1
4,48,1,4,x,371,1
4,49,0,4,n,347,1
4,50,1,4,x,230,1
4,51,0,4,n,380,1
4,52,1,4,x,205,1
4,53,1,4,x,352,1
4,54,0,4,n,185,1
4,55,1,4,x,258,1
4,56,0,4,n,272,1
4,57,1,4,x,199,1
4,58,1,4,x,240,1
4,59,0,4,n,121,1
4,60,1,4,x,207,1
4,61,1,4,x,283,1
4,62,0,4,n,135,1
4,63,1,4,x,175,1
4,64,0,4,n,236,1
4,65,1,4,x,162,1
4,66,1,4,x,234,1
4,67,0,4,n,167,1
4,68,1,4,x,196,1
4,69,1,4,x,339,1
4,70,0,4,n,217,1
4,71,1,4,x,176,1
4,72,0,4,n,314,1
4,73,1,4,x,205,1
4,74,1,4,x,442,1
4,75,0,4,n,124,1
4,76,1,4,x,141,1
4,77,0,4,x,230,0
4,78,1,4,x,239,1
4,79,1,4,x,261,1
4,80,0,4,n,134,1
4,81,1,4,x,195,1
4,82,1,4,x,296,1
4,83,0,4,n,200,1
4,84,1,4,x,227,1
4,85,0,4,n,325,1
4,86,1,4,x,184,1
4,87,1,4,x,217,1
4,88,0,4,n,212,1
4,89,1,4,x,188,1
4,90,1,4,x,349,1
4,91,0,4,n,82,1
4,92,1,4,x,221,1
4,93,0,4,n,241,1
4,94,1,4,x,148,1
4,95,1,4,x,241,1
4,96,0,4,n,233,1
4,97,1,4,x,221,1
4,98,0,4,x,234,0
4,99,1,4,x,231,1
4,100,1,4,x,280,1
4,101,0,4,n,83,1
4,102,1,4,x,235,1
4,103,1,4,x,315,1
4,104,0,4,n,68,1
4,105,1,4,x,235,1
4,106,0,4,n,272,1
4,107,1,4,x,279,1
4,108,1,4,x,385,1
4,109,0,4,n,280,1
4,110,1,4,x,154,1
4,111,0,4,n,255,1
4,112,1,4,x,218,1
4,113,1,4,x,261,1
4,114,0,4,n,319,1
4,115,1,4,x,35,1
4,116,1,4,x,245,1
4,117,0,4,n,131,1
4,118,1,4,x,194,1
4,119,0,4,n,188,1
4,120,1,4,x,320,1
4,121,1,4,x,241,1
4,122,0,4,n,232,1
4,123,1,4,x,178,1
4,124,1,4,n,200,0
4,125,0,4,x,246,0
4,126,1,4,x,867,1
4,127,0,4,n,407,1
4,128,1,4,x,314,1
4,129,1,4,x,328,1
4,130,0,4,n,223,1
4,131,1,4,x,261,1
4,132,0,4,n,385,1
4,133,1,4,x,230,1
4,134,1,4,x,268,1
4,135,0,4,n,374,1
4,136,1,4,x,83,1
4,137,1,4,x,271,1
4,138,0,4,n,383,1
4,139,1,4,x,227,1
4,140,0,4,n,416,1
4,141,1,4,x,195,1
4,142,1,4,x,248,1
4,143,0,4,n,167,1
4,144,1,4,x,135,1
4,145,0,4,n,367,1
4,146,1,4,x,93,1
4,147,1,4,x,275,1
4,148,0,4,n,185,1
4,149,1,4,x,248,1
4,150,1,4,x,346,1
4,151,0,4,n,85,1
4,152,1,4,x,260,1
4,153,0,4,n,407,1
4,154,1,4,x,229,1
4,155,1,4,x,308,1
4,156,0,4,n,233,1
4,157,1,4,x,235,1
4,158,1,4,x,284,1
4,159,0,4,n,207,1
4,160,1,4,x,281,1
4,161,0,4,n,219,1
4,162,1,4,x,145,1
4,163,1,4,x,237,1
4,164,0,4,n,228,1
4,165,1,4,x,294,1
4,166,0,4,x,248,0
4,167,1,4,x,289,1
4,168,1,4,x,283,1
4,169,0,4,n,231,1
4,170,1,4,x,301,1
4,171,1,4,n,227,0
4,172,0,4,n,436,1
4,173,1,4,x,238,1
4,174,0,4,n,337,1
4,175,1,4,x,310,1
4,176,1,4,x,266,1
4,177,0,4,n,185,1
4,178,1,4,x,233,1
4,179,1,4,x,357,1
4,180,0,4,n,213,1
4,181,1,4,x,268,1
4,182,0,4,x,286,0
4,183,1,4,x,234,1
4,184,1,4,x,278,1
4,185,0,4,n,167,1
4,186,1,4,x,301,1
4,187,0,4,n,368,1
4,188,1,4,x,206,1
4,189,1,4,x,352,1
4,190,0,4,n,279,1
4,191,1,4,x,156,1
4,192,1,4,x,325,1
4,193,0,4,n,363,1
4,194,1,4,x,248,1
4,195,0,4,n,371,1
4,196,1,4,x,197,1
4,197,1,4,x,329,1
4,198,0,4,n,258,1
4,199,1,4,x,244,1
4,200,0,4,n,383,1
4,201,1,4,x,216,1
4,202,1,4,x,376,1
4,203,0,4,n,214,1
4,204,1,4,x,340,1
4,205,1,4,x,332,1
4,206,0,4,n,307,1
4,207,1,4,x,304,1
4,208,0,4,x,289,0
4,209,1,4,x,228,1
4,210,1,4,x,406,1
4,211,0,4,n,333,1
4,212,1,4,x,446,1
4,213,1,4,x,339,1
4,214,0,4,n,351,1
4,215,1,4,x,237,1
4,216,0,4,n,386,1
4,217,1,4,x,260,1
4,218,1,4,x,345,1
4,219,0,4,n,216,1
4,220,1,4,x,301,1
4,221,0,4,n,400,1
4,222,1,4,x,225,1
4,223,1,4,x,305,1
4,224,0,4,n,340,1
4,225,1,4,x,239,1
4,226,1,4,x,292,1
4,227,0,4,n,265,1
4,228,1,4,x,249,1
4,229,0,4,n,435,1
4,230,1,4,x,339,1
4,231,1,4,x,542,1
4,232,0,4,n,261,1
4,233,1,4,x,257,1
4,1,0,5,n,312,1
4,2,1,5,x,282,1
4,3,1,5,x,236,1
4,4,0,5,n,188,1
4,5,1,5,x,260,1
4,6,1,5,x,273,1
4,7,0,5,n,243,1
4,8,1,5,x,254,1
4,9,0,5,n,360,1
4,10,1,5,x,161,1
4,11,1,5,x,277,1
4,12,0,5,n,226,1
4,13,1,5,x,271,1
4,14,1,5,x,269,1
4,15,0,5,n,136,1
4,16,1,5,x,119,1
4,17,0,5,n,303,1
4,18,1,5,x,170,1
4,19,1,5,x,270,1
4,20,0,5,n,195,1
4,21,1,5,x,247,1
4,22,0,5,n,247,1
4,23,1,5,x,196,1
4,24,1,5,x,244,1
4,25,0,5,n,157,1
4,26,1,5,x,192,1
4,27,1,5,x,292,1
4,28,0,5,n,165,1
4,29,1,5,x,139,1
4,30,0,5,n,258,1
4,31,1,5,x,183,1
4,32,1,5,x,248,1
4,33,0,5,n,135,1
4,34,1,5,x,157,1
4,35,1,5,x,241,1
4,36,0,5,n,111,1
4,37,1,5,x,257,1
4,38,0,5,n,253,1
4,39,1,5,x,236,1
4,40,1,5,x,266,1
4,41,0,5,n,147,1
4,42,1,5,x,137,1
4,43,0,5,x,261,0
4,44,1,5,x,324,1
4,45,1,5,x,341,1
4,46,0,5,n,254,1
4,47,1,5,x,220,1
4,48,1,5,x,324,1
4,49,0,5,n,164,1
4,50,1,5,x,210,1
4,51,0,5,n,276,1
4,52,1,5,x,222,1
4,53,1,5,x,250,1
4,54,0,5,n,265,1
4,55,1,5,x,171,1
4,56,0,5,n,355,1
4,57,1,5,x,134,1
4,58,1,5,x,322,1
4,59,0,5,n,217,1
4,60,1,5,x,207,1
4,61,1,5,x,271,1
4,62,0,5,n,221,1
4,63,1,5,x,176,1
4,64,0,5,n,156,1
4,65,1,5,x,150,1
4,66,1,5,x,332,1
4,67,0,5,n,211,1
4,68,1,5,x,226,1
4,69,1,5,x,268,1
4,70,0,5,n,201,1
4,71,1,5,x,188,1
4,72,0,5,x,260,0
4,73,1,5,x,242,1
4,74,1,5,x,265,1
4,75,0,5,n,319,1
4,76,1,5,x,230,1
4,77,0,5,x,206,0
4,78,1,5,x,242,1
4,79,1,5,x,343,1
4,80,0,5,n,196,1
4,81,1,5,x,184,1
4,82,1,5,x,326,1
4,83,0,5,n,203,1
4,84,1,5,x,307,1
4,85,0,5,x,351,0
4,86,1,5,x,266,1
4,87,1,5,x,293,1
4,88,0,5,n,205,1
4,89,1,5,x,470,1
4,90,1,5,x,315,1
4,91,0,5,n,203,1
4,92,1,5,x,269,1
4,93,0,5,n,387,1
4,94,1,5,x,230,1
4,95,1,5,x,345,1
4,96,0,5,n,297,1
4,97,1,5,x,239,1
4,98,0,5,n,370,1
4,99,1,5,x,250,1
4,100,1,5,x,310,1
4,101,0,5,n,197,1
4,102,1,5,x,228,1
4,103,1,5,x,299,1
4,104,0,5,n,150,1
4,105,1,5,x,165,1
4,106,0,5,n,379,1
4,107,1,5,x,244,1
4,108,1,5,x,346,1
4,109,0,5,n,228,1
4,110,1,5,x,216,1
4,111,0,5,n,365,1
4,112,1,5,x,238,1
4,113,1,5,x,348,1
4,114,0,5,n,240,1
4,115,1,5,x,200,1
4,116,1,5,x,299,1
4,117,0,5,n,276,1
4,118,1,5,x,233,1
4,119,0,5,n,316,1
4,120,1,5,x,156,1
4,121,1,5,x,340,1
4,122,0,5,n,223,1
4,123,1,5,x,311,1
4,124,1,5,x,274,1
4,125,0,5,n,322,1
4,126,1,5,x,320,1
4,127,0,5,n,400,1
4,128,1,5,x,417,1
4,129,1,5,x,276,1
4,130,0,5,n,220,1
4,131,1,5,x,219,1
4,132,0,5,x,338,0
4,133,1,5,x,240,1
4,134,1,5,x,337,1
4,135,0,5,n,179,1
4,136,1,5,x,206,1
4,137,1,5,x,332,1
4,138,0,5,n,117,1
4,139,1,5,x,285,1
4,140,0,5,n,307,1
4,141,1,5,x,250,1
4,142,1,5,x,263,1
4,143,0,5,n,228,1
4,144,1,5,x,417,1
4,145,0,5,n,346,1
4,146,1,5,x,245,1
4,147,1,5,x,316,1
4,148,0,5,n,246,1
4,149,1,5,x,277,1
4,150,1,5,x,325,1
4,151,0,5,n,221,1
4,152,1,5,x,260,1
4,153,0,5,n,266,1
4,154,1,5,x,150,1
4,155,1,5,x,266,1
4,156,0,5,n,203,1
4,157,1,5,x,199,1
4,158,1,5,x,398,1
4,159,0,5,n,189,1
4,160,1,5,x,221,1
4,161,0,5,n,300,1
4,162,1,5,x,142,1
4,163,1,5,x,252,1
4,164,0,5,n,129,1
4,165,1,5,x,265,1
4,166,0,5,n,279,1
4,167,1,5,x,118,1
4,168,1,5,x,244,1
4,169,0,5,n,164,1
4,170,1,5,x,210,1
4,171,1,5,x,345,1
4,172,0,5,n,123,1
4,173,1,5,x,131,1
4,174,0,5,n,279,1
4,175,1,5,x,104,1
4,176,1,5,x,339,1
4,177,0,5,n,241,1
4,178,1,5,x,194,1
4,179,1,5,x,264,1
4,180,0,5,n,220,1
4,181,1,5,x,256,1
4,182,0,5,n,392,1
4,183,1,5,x,262,1
4,184,1,5,x,269,1
4,185,0,5,n,198,1
4,186,1,5,x,175,1
4,187,0,5,x,365,0
4,188,1,5,x,210,1
4,189,1,5,x,263,1
4,190,0,5,n,250,1
4,191,1,5,x,332,1
4,192,1,5,x,331,1
4,193,0,5,n,249,1
4,194,1,5,x,125,1
4,195,0,5,n,389,1
4,196,1,5,x,183,1
4,197,1,5,x,279,1
4,198,0,5,n,280,1
4,199,1,5,x,205,1
4,200,0,5,n,389,1
4,201,1,5,x,171,1
4,202,1,5,x,360,1
4,203,0,5,n,111,1
4,204,1,5,x,248,1
4,205,1,5,x,300,1
4,206,0,5,n,225,1
4,207,1,5,x,260,1
4,208,0,5,n,266,1
4,209,1,5,x,223,1
4,210,1,5,x,289,1
4,211,0,5,n,80,1
4,212,1,5,x,168,1
4,213,1,5,x,367,1
4,214,0,5,n,31,1
4,215,1,5,x,291,1
4,216,0,5,n,383,1
4,217,1,5,x,315,1
4,218,1,5,x,266,1
4,219,0,5,n,14,1
4,220,1,5,x,602,1
4,221,0,5,n,417,1
4,222,1,5,x,278,1
4,223,1,5,x,233,1
4,224,0,5,n,145,1
4,225,1,5,x,257,1
4,226,1,5,x,283,1
4,227,0,5,n,232,1
4,228,1,5,x,189,1
4,229,0,5,x,252,0
4,230,1,5,x,244,1
4,231,1,5,x,336,1
4,232,0,5,n,208,1
4,233,1,5,x,254,1
5,1,0,1,n,562,1
5,2,1,1,x,437,1
5,3,1,1,x,332,1
5,4,0,1,n,324,1
5,5,1,1,x,358,1
5,6,1,1,x,403,1
5,7,0,1,n,515,1
5,8,1,1,n,344,0
5,9,0,1,n,470,1
5,10,1,1,x,434,1
5,11,1,1,x,416,1
5,12,0,1,n,416,1
5,13,1,1,x,383,1
5,14,1,1,x,425,1
5,15,0,1,n,358,1
5,16,1,1,x,384,1
5,17,0,1,n,359,1
5,18,1,1,x,349,1
5,19,1,1,n,294,0
5,20,0,1,x,414,0
5,21,1,1,x,427,1
5,22,0,1,n,495,1
5,23,1,1,x,567,1
5,24,1,1,x,402,1
5,25,0,1,n,437,1
5,26,1,1,x,407,1
5,27,1,1,x,428,1
5,28,0,1,n,467,1
5,29,1,1,x,468,1
5,30,0,1,n,415,1
5,31,1,1,x,438,1
5,32,1,1,x,458,1
5,33,0,1,n,450,1
5,34,1,1,n,397,0
5,35,1,1,x,677,1
5,36,0,1,n,598,1
5,37,1,1,x,420,1
5,38,0,1,n,428,1
5,39,1,1,x,431,1
5,40,1,1,x,491,1
5,41,0,1,n,442,1
5,42,1,1,x,526,1
5,43,0,1,x,305,0
5,44,1,1,x,678,1
5,45,1,1,x,402,1
5,46,0,1,n,347,1
5,47,1,1,x,396,1
5,48,1,1,x,342,1
5,49,0,1,x,339,0
5,50,1,1,x,425,1
5,51,0,1,n,533,1
5,52,1,1,x,304,1
5,53,1,1,x,328,1
5,54,0,1,n,466,1
5,55,1,1,x,309,1
5,56,0,1,n,313,1
5,57,1,1,x,351,1
5,58,1,1,n,307,0
5,59,0,1,n,444,1
5,60,1,1,x,390,1
5,61,1,1,x,354,1
5,62,0,1,n,415,1
5,63,1,1,x,396,1
5,64,0,1,n,442,1
5,65,1,1,x,526,1
5,66,1,1,n,325,0
5,67,0,1,x,416,0
5,68,1,1,x,411,1
5,69,1,1,x,433,1
5,70,0,1,n,431,1
5,71,1,1,x,437,1
5,72,0,1,x,422,0
5,73,1,1,x,593,1
5,74,1,1,x,428,1
5,75,0,1,n,455,1
5,76,1,1,x,343,1
5,77,0,1,n,414,1
5,78,1,1,x,327,1
5,79,1,1,x,504,1
5,80,0,1,n,426,1
5,81,1,1,x,326,1
5,82,1,1,x,313,1
5,83,0,1,x,403,0
5,84,1,1,x,479,1
5,85,0,1,n,436,1
5,86,1,1,x,322,1
5,87,1,1,x,478,1
5,88,0,1,n,453,1
5,89,1,1,x,306,1
5,90,1,1,n,304,0
5,91,0,1,n,657,1
5,92,1,1,x,455,1
5,93,0,1,n,442,1
5,94,1,1,x,389,1
5,95,1,1,x,482,1
5,96,0,1,n,413,1
5,97,1,1,x,538,1
5,98,0,1,n,444,1
5,99,1,1,x,365,1
5,100,1,1,x,325,1
5,101,0,1,n,400,1
5,102,1,1,x,337,1
5,103,1,1,x,415,1
5,104,0,1,n,380,1
5,105,1,1,x,486,1
5,106,0,1,n,303,1
5,107,1,1,x,353,1
5,108,1,1,n,374,0
5,109,0,1,x,416,0
5,110,1,1,n,387,0
5,111,0,1,n,836,1
5,112,1,1,x,540,1
5,113,1,1,x,722,1
5,114,0,1,n,564,1
5,115,1,1,x,467,1
5,116,1,1,x,705,1
5,117,0,1,n,439,1
5,118,1,1,x,403,1
5,119,0,1,n,369,1
5,120,1,1,x,326,1
5,121,1,1,n,323,0
5,122,0,1,n,398,1
5,123,1,1,x,465,1
5,124,1,1,x,435,1
5,125,0,1,n,677,1
5,126,1,1,x,368,1
5,127,0,1,n,323,1
5,128,1,1,x,316,1
5,129,1,1,x,495,1
5,130,0,1,n,595,1
5,131,1,1,x,341,1
5,132,0,1,n,404,1
5,133,1,1,x,352,1
5,134,1,1,n,316,0
5,135,0,1,x,473,0
5,136,1,1,x,473,1
5,137,1,1,x,327,1
5,138,0,1,n,492,1
5,139,1,1,x,420,1
5,140,0,1,n,377,1
5,141,1,1,x,377,1
5,142,1,1,x,536,1
5,143,0,1,n,497,1
5,144,1,1,x,355,1
5,145,0,1,n,423,1
5,146,1,1,x,400,1
5,147,1,1,x,474,1
5,148,0,1,n,390,1
5,149,1,1,x,365,1
5,150,1,1,x,323,1
5,151,0,1,n,372,1
5,152,1,1,x,297,1
5,153,0,1,x,490,0
5,154,1,1,x,500,1
5,155,1,1,x,382,1
5,156,0,1,n,476,1
5,157,1,1,x,292,1
5,158,1,1,x,443,1
5,159,0,1,n,503,1
5,160,1,1,x,324,1
5,161,0,1,n,312,1
5,162,1,1,x,330,1
5,163,1,1,n,445,0
5,164,0,1,n,538,1
5,165,1,1,x,424,1
5,166,0,1,n,427,1
5,167,1,1,x,348,1
5,168,1,1,x,389,1
5,169,0,1,n,446,1
5,170,1,1,x,399,1
5,171,1,1,x,532,1
5,172,0,1,n,493,1
5,173,1,1,x,328,1
5,174,0,1,n,433,1
5,175,1,1,x,321,1
5,176,1,1,x,320,1
5,177,0,1,n,498,1
5,178,1,1,x,308,1
5,179,1,1,x,458,1
5,180,0,1,x,501,0
5,181,1,1,x,380,1
5,182,0,1,n,429,1
5,183,1,1,x,325,1
5,184,1,1,x,544,1
5,185,0,1,n,570,1
5,186,1,1,x,269,1
5,187,0,1,n,540,1
5,188,1,1,x,274,1
5,189,1,1,x,421,1
5,190,0,1,n,511,1
5,191,1,1,x,395,1
5,192,1,1,x,365,1
5,193,0,1,n,459,1
5,194,1,1,x,299,1
5,195,0,1,n,552,1
5,196,1,1,x,405,1
5,197,1,1,x,465,1
5,198,0,1,n,413,1
5,199,1,1,x,319,1
5,200,0,1,n,420,1
5,201,1,1,x,302,1
5,202,1,1,n,270,0
5,203,0,1,n,432,1
5,204,1,1,n,563,0
5,205,1,1,n,391,0
5,206,0,1,n,987,1
5,207,1,1,x,562,1
5,208,0,1,n,690,1
5,209,1,1,timeout,1198,timeout
5,210,1,1,x,519,1
5,211,0,1,n,583,1
5,212,1,1,x,406,1
5,213,1,1,x,415,1
5,214,0,1,n,485,1
5,215,1,1,n,450,0
5,216,0,1,n,462,1
5,217,1,1,x,395,1
5,218,1,1,x,355,1
5,219,0,1,n,492,1
5,220,1,1,x,325,1
5,221,0,1,n,288,1
5,222,1,1,x,245,1
5,223,1,1,x,443,1
5,224,0,1,n,426,1
5,225,1,1,x,446,1
5,226,1,1,x,420,1
5,227,0,1,n,364,1
5,228,1,1,x,522,1
5,229,0,1,n,346,1
5,230,1,1,x,306,1
5,231,1,1,n,252,0
5,232,0,1,n,411,1
5,233,1,1,x,289,1
5,1,0,2,timeout,1200,timeout
5,2,1,2,x,634,1
5,3,1,2,x,505,1
5,4,0,2,n,423,1
5,5,1,2,x,488,1
5,6,1,2,x,378,1
5,7,0,2,n,459,1
5,8,1,2,x,1016,1
5,9,0,2,n,841,1
5,10,1,2,x,523,1
5,11,1,2,x,582,1
5,12,0,2,n,551,1
5,13,1,2,x,616,1
5,14,1,2,x,568,1
5,15,0,2,n,514,1
5,16,1,2,x,411,1
5,17,0,2,n,408,1
5,18,1,2,x,353,1
5,19,1,2,x,393,1
5,20,0,2,n,378,1
5,21,1,2,x,358,1
5,22,0,2,n,387,1
5,23,1,2,x,440,1
5,24,1,2,x,368,1
5,25,0,2,n,425,1
5,26,1,2,x,408,1
5,27,1,2,x,348,1
5,28,0,2,n,382,1
5,29,1,2,x,326,1
5,30,0,2,x,440,0
5,31,1,2,x,704,1
5,32,1,2,x,384,1
5,33,0,2,n,400,1
5,34,1,2,x,430,1
5,35,1,2,x,367,1
5,36,0,2,n,404,1
5,37,1,2,x,374,1
5,38,0,2,n,423,1
5,39,1,2,x,394,1
5,40,1,2,x,492,1
5,41,0,2,n,445,1
5,42,1,2,x,515,1
5,43,0,2,n,470,1
5,44,1,2,x,521,1
5,45,1,2,x,567,1
5,46,0,2,n,456,1
5,47,1,2,x,451,1
5,48,1,2,x,373,1
5,49,0,2,n,524,1
5,50,1,2,x,444,1
5,51,0,2,n,536,1
5,52,1,2,x,351,1
5,53,1,2,x,301,1
5,54,0,2,n,359,1
5,55,1,2,x,311,1
5,56,0,2,n,343,1
5,57,1,2,x,351,1
5,58,1,2,x,344,1
5,59,0,2,n,357,1
5,60,1,2,x,340,1
5,61,1,2,x,307,1
5,62,0,2,n,390,1
5,63,1,2,x,366,1
5,64,0,2,n,344,1
5,65,1,2,x,339,1
5,66,1,2,x,455,1
5,67,0,2,n,394,1
5,68,1,2,x,385,1
5,69,1,2,x,313,1
5,70,0,2,n,384,1
5,71,1,2,x,292,1
5,72,0,2,n,429,1
5,73,1,2,x,297,1
5,74,1,2,x,358,1
5,75,0,2,n,472,1
5,76,1,2,x,345,1
5,77,0,2,n,472,1
5,78,1,2,x,547,1
5,79,1,2,x,318,1
5,80,0,2,n,405,1
5,81,1,2,x,331,1
5,82,1,2,x,332,1
5,83,0,2,n,424,1
5,84,1,2,x,374,1
5,85,0,2,n,545,1
5,86,1,2,x,391,1
5,87,1,2,x,327,1
5,88,0,2,n,415,1
5,89,1,2,x,373,1
5,90,1,2,x,271,1
5,91,0,2,n,353,1
5,92,1,2,x,280,1
5,93,0,2,n,428,1
5,94,1,2,x,284,1
5,95,1,2,x,271,1
5,96,0,2,n,546,1
5,97,1,2,x,377,1
5,98,0,2,n,371,1
5,99,1,2,x,430,1
5,100,1,2,x,426,1
5,101,0,2,n,441,1
5,102,1,2,x,464,1
5,103,1,2,n,419,0
5,104,0,2,n,979,1
5,105,1,2,x,425,1
5,106,0,2,n,712,1
5,107,1,2,x,458,1
5,108,1,2,x,385,1
5,109,0,2,n,508,1
5,110,1,2,x,384,1
5,111,0,2,n,470,1
5,112,1,2,x,489,1
5,113,1,2,x,376,1
5,114,0,2,n,420,1
5,115,1,2,x,418,1
5,116,1,2,x,431,1
5,117,0,2,n,417,1
5,118,1,2,x,404,1
5,119,0,2,timeout,1201,timeout
5,120,1,2,x,703,1
5,121,1,2,timeout,1201,timeout
5,122,0,2,n,607,1
5,123,1,2,x,501,1
5,124,1,2,x,393,1
5,125,0,2,n,426,1
5,126,1,2,x,340,1
5,127,0,2,n,322,1
5,128,1,2,x,261,1
5,129,1,2,x,324,1
5,130,0,2,n,364,1
5,131,1,2,x,383,1
5,132,0,2,n,393,1
5,133,1,2,x,309,1
5,134,1,2,x,440,1
5,135,0,2,n,322,1
5,136,1,2,x,599,1
5,137,1,2,x,468,1
5,138,0,2,n,406,1
5,139,1,2,x,372,1
5,140,0,2,x,495,0
5,141,1,2,x,501,1
5,142,1,2,x,384,1
5,143,0,2,n,429,1
5,144,1,2,x,403,1
5,145,0,2,n,409,1
5,146,1,2,x,357,1
5,147,1,2,x,483,1
5,148,0,2,n,491,1
5,149,1,2,x,378,1
5,150,1,2,x,388,1
5,151,0,2,n,375,1
5,152,1,2,x,346,1
5,153,0,2,n,470,1
5,154,1,2,x,393,1
5,155,1,2,x,474,1
5,156,0,2,n,405,1
5,157,1,2,x,374,1
5,158,1,2,x,446,1
5,159,0,2,n,397,1
5,160,1,2,x,385,1
5,161,0,2,n,380,1
5,162,1,2,x,362,1
5,163,1,2,x,383,1
5,164,0,2,n,264,1
5,165,1,2,x,285,1
5,166,0,2,n,441,1
5,167,1,2,x,297,1
5,168,1,2,x,273,1
5,169,0,2,n,426,1
5,170,1,2,x,403,1
5,171,1,2,x,679,1
5,172,0,2,n,480,1
5,173,1,2,x,524,1
5,174,0,2,n,314,1
5,175,1,2,x,334,1
5,176,1,2,x,250,1
5,177,0,2,n,343,1
5,178,1,2,x,313,1
5,179,1,2,x,741,1
5,180,0,2,n,357,1
5,181,1,2,x,358,1
5,182,0,2,n,588,1
5,183,1,2,x,515,1
5,184,1,2,x,371,1
5,185,0,2,n,397,1
5,186,1,2,x,315,1
5,187,0,2,n,296,1
5,188,1,2,x,381,1
5,189,1,2,x,375,1
5,190,0,2,n,501,1
5,191,1,2,x,356,1
5,192,1,2,x,420,1
5,193,0,2,n,405,1
5,194,1,2,x,437,1
5,195,0,2,n,357,1
5,196,1,2,x,384,1
5,197,1,2,n,403,0
5,198,0,2,n,491,1
5,199,1,2,x,386,1
5,200,0,2,n,535,1
5,201,1,2,x,398,1
5,202,1,2,x,363,1
5,203,0,2,n,347,1
5,204,1,2,x,302,1
5,205,1,2,x,741,1
5,206,0,2,n,364,1
5,207,1,2,x,355,1
5,208,0,2,n,615,1
5,209,1,2,x,347,1
5,210,1,2,x,312,1
5,211,0,2,n,327,1
5,212,1,2,x,367,1
5,213,1,2,x,393,1
5,214,0,2,n,421,1
5,215,1,2,x,387,1
5,216,0,2,n,475,1
5,217,1,2,x,355,1
5,218,1,2,x,419,1
5,219,0,2,n,400,1
5,220,1,2,x,329,1
5,221,0,2,n,351,1
5,222,1,2,x,338,1
5,223,1,2,x,583,1
5,224,0,2,n,336,1
5,225,1,2,x,346,1
5,226,1,2,x,356,1
5,227,0,2,n,392,1
5,228,1,2,x,407,1
5,229,0,2,n,434,1
5,230,1,2,x,311,1
5,231,1,2,x,475,1
5,232,0,2,n,309,1
5,233,1,2,x,312,1
5,1,0,3,timeout,1200,timeout
5,2,1,3,x,1145,1
5,3,1,3,x,405,1
5,4,0,3,n,444,1
5,5,1,3,x,445,1
5,6,1,3,x,400,1
5,7,0,3,n,294,1
5,8,1,3,x,406,1
5,9,0,3,n,367,1
5,10,1,3,x,381,1
5,11,1,3,n,256,0
5,12,0,3,x,483,0
5,13,1,3,x,792,1
5,14,1,3,x,383,1
5,15,0,3,n,462,1
5,16,1,3,x,423,1
5,17,0,3,n,431,1
5,18,1,3,x,352,1
5,19,1,3,x,394,1
5,20,0,3,n,309,1
5,21,1,3,n,504,0
5,22,0,3,timeout,1200,timeout
5,23,1,3,timeout,1200,timeout
5,24,1,3,x,1013,1
5,25,0,3,n,800,1
5,26,1,3,x,492,1
5,27,1,3,x,405,1
5,28,0,3,n,357,1
5,29,1,3,x,365,1
5,30,0,3,n,459,1
5,31,1,3,x,285,1
5,32,1,3,x,372,1
5,33,0,3,n,304,1
5,34,1,3,x,296,1
5,35,1,3,x,277,1
5,36,0,3,n,268,1
5,37,1,3,x,285,1
5,38,0,3,n,520,1
5,39,1,3,x,332,1
5,40,1,3,x,436,1
5,41,0,3,n,260,1
5,42,1,3,x,319,1
5,43,0,3,n,257,1
5,44,1,3,x,318,1
5,45,1,3,x,259,1
5,46,0,3,n,266,1
5,47,1,3,x,294,1
5,48,1,3,n,246,0
5,49,0,3,n,557,1
5,50,1,3,x,295,1
5,51,0,3,n,398,1
5,52,1,3,x,342,1
5,53,1,3,x,274,1
5,54,0,3,n,292,1
5,55,1,3,x,295,1
5,56,0,3,n,263,1
5,57,1,3,x,291,1
5,58,1,3,x,266,1
5,59,0,3,n,252,1
5,60,1,3,x,236,1
5,61,1,3,x,254,1
5,62,0,3,n,216,1
5,63,1,3,x,216,1
5,64,0,3,x,205,0
5,65,1,3,x,330,1
5,66,1,3,n,262,0
5,67,0,3,x,277,0
5,68,1,3,timeout,1198,timeout
5,69,1,3,x,946,1
5,70,0,3,n,486,1
5,71,1,3,x,541,1
5,72,0,3,n,450,1
5,73,1,3,x,392,1
5,74,1,3,n,331,0
5,75,0,3,x,510,0
5,76,1,3,n,842,0
5,77,0,3,n,465,1
5,78,1,3,x,466,1
5,79,1,3,x,569,1
5,80,0,3,n,609,1
5,81,1,3,x,468,1
5,82,1,3,x,432,1
5,83,0,3,n,430,1
5,84,1,3,x,287,1
5,85,0,3,n,461,1
5,86,1,3,x,442,1
5,87,1,3,n,291,0
5,88,0,3,n,544,1
5,89,1,3,x,329,1
5,90,1,3,x,315,1
5,91,0,3,n,414,1
5,92,1,3,x,409,1
5,93,0,3,x,396,0
5,94,1,3,x,433,1
5,95,1,3,x,391,1
5,96,0,3,n,383,1
5,97,1,3,x,318,1
5,98,0,3,n,404,1
5,99,1,3,x,373,1
5,100,1,3,x,313,1
5,101,0,3,n,253,1
5,102,1,3,x,264,1
5,103,1,3,x,431,1
5,104,0,3,n,326,1
5,105,1,3,x,288,1
5,106,0,3,n,386,1
5,107,1,3,x,268,1
5,108,1,3,x,489,1
5,109,0,3,n,436,1
5,110,1,3,x,321,1
5,111,0,3,n,481,1
5,112,1,3,x,289,1
5,113,1,3,x,354,1
5,114,0,3,n,270,1
5,115,1,3,x,287,1
5,116,1,3,x,285,1
5,117,0,3,n,326,1
5,118,1,3,x,324,1
5,119,0,3,x,274,0
5,120,1,3,x,333,1
5,121,1,3,n,250,0
5,122,0,3,n,591,1
5,123,1,3,x,276,1
5,124,1,3,x,316,1
5,125,0,3,n,273,1
5,126,1,3,x,370,1
5,127,0,3,n,431,1
5,128,1,3,x,521,1
5,129,1,3,x,467,1
5,130,0,3,n,320,1
5,131,1,3,x,565,1
5,132,0,3,n,430,1
5,133,1,3,x,291,1
5,134,1,3,x,249,1
5,135,0,3,n,242,1
5,136,1,3,x,290,1
5,137,1,3,x,334,1
5,138,0,3,n,270,1
5,139,1,3,x,210,1
5,140,0,3,x,270,0
5,141,1,3,x,529,1
5,142,1,3,x,493,1
5,143,0,3,n,397,1
5,144,1,3,x,284,1
5,145,0,3,n,240,1
5,146,1,3,x,321,1
5,147,1,3,x,323,1
5,148,0,3,n,282,1
5,149,1,3,x,251,1
5,150,1,3,x,352,1
5,151,0,3,n,372,1
5,152,1,3,x,320,1
5,153,0,3,n,418,1
5,154,1,3,x,266,1
5,155,1,3,x,270,1
5,156,0,3,n,368,1
5,157,1,3,x,257,1
5,158,1,3,x,270,1
5,159,0,3,n,301,1
5,160,1,3,x,355,1
5,161,0,3,x,304,0
5,162,1,3,x,605,1
5,163,1,3,x,275,1
5,164,0,3,n,259,1
5,165,1,3,x,298,1
5,166,0,3,n,274,1
5,167,1,3,x,239,1
5,168,1,3,x,271,1
5,169,0,3,n,272,1
5,170,1,3,x,273,1
5,171,1,3,x,244,1
5,172,0,3,n,254,1
5,173,1,3,x,287,1
5,174,0,3,n,376,1
5,175,1,3,x,269,1
5,176,1,3,x,251,1
5,177,0,3,n,284,1
5,178,1,3,x,269,1
5,179,1,3,n,272,0
5,180,0,3,n,416,1
5,181,1,3,x,291,1
5,182,0,3,n,388,1
5,183,1,3,x,277,1
5,184,1,3,x,286,1
5,185,0,3,n,301,1
5,186,1,3,x,435,1
5,187,0,3,n,399,1
5,188,1,3,x,255,1
5,189,1,3,x,246,1
5,190,0,3,n,256,1
5,191,1,3,x,256,1
5,192,1,3,x,384,1
5,193,0,3,n,310,1
5,194,1,3,x,278,1
5,195,0,3,n,303,1
5,196,1,3,x,246,1
5,197,1,3,n,357,0
5,198,0,3,x,304,0
5,199,1,3,x,692,1
5,200,0,3,n,402,1
5,201,1,3,x,421,1
5,202,1,3,x,519,1
5,203,0,3,n,274,1
5,204,1,3,x,271,1
5,205,1,3,x,417,1
5,206,0,3,n,271,1
5,207,1,3,x,290,1
5,208,0,3,n,466,1
5,209,1,3,x,281,1
5,210,1,3,n,305,0
5,211,0,3,n,380,1
5,212,1,3,x,365,1
5,213,1,3,x,279,1
5,214,0,3,n,421,1
5,215,1,3,x,321,1
5,216,0,3,n,329,1
5,217,1,3,x,311,1
5,218,1,3,x,471,1
5,219,0,3,n,290,1
5,220,1,3,x,273,1
5,221,0,3,n,457,1
5,222,1,3,x,264,1
5,223,1,3,x,295,1
5,224,0,3,n,228,1
5,225,1,3,x,303,1
5,226,1,3,x,402,1
5,227,0,3,n,279,1
5,228,1,3,x,272,1
5,229,0,3,n,256,1
5,230,1,3,x,320,1
5,231,1,3,n,371,0
5,232,0,3,n,366,1
5,233,1,3,x,355,1
5,1,0,4,n,820,1
5,2,1,4,x,367,1
5,3,1,4,x,350,1
5,4,0,4,n,386,1
5,5,1,4,x,391,1
5,6,1,4,x,413,1
5,7,0,4,n,361,1
5,8,1,4,x,286,1
5,9,0,4,n,291,1
5,10,1,4,x,253,1
5,11,1,4,n,228,0
5,12,0,4,n,357,1
5,13,1,4,x,342,1
5,14,1,4,x,287,1
5,15,0,4,n,282,1
5,16,1,4,x,287,1
5,17,0,4,n,278,1
5,18,1,4,x,297,1
5,19,1,4,n,238,0
5,20,0,4,n,423,1
5,21,1,4,x,277,1
5,22,0,4,n,476,1
5,23,1,4,x,307,1
5,24,1,4,x,436,1
5,25,0,4,n,353,1
5,26,1,4,x,288,1
5,27,1,4,n,355,0
5,28,0,4,n,482,1
5,29,1,4,x,302,1
5,30,0,4,n,449,1
5,31,1,4,x,281,1
5,32,1,4,x,265,1
5,33,0,4,n,274,1
5,34,1,4,x,274,1
5,35,1,4,x,283,1
5,36,0,4,n,263,1
5,37,1,4,x,301,1
5,38,0,4,n,275,1
5,39,1,4,x,263,1
5,40,1,4,x,325,1
5,41,0,4,n,225,1
5,42,1,4,x,308,1
5,43,0,4,n,447,1
5,44,1,4,x,295,1
5,45,1,4,x,265,1
5,46,0,4,n,248,1
5,47,1,4,x,240,1
5,48,1,4,x,479,1
5,49,0,4,n,277,1
5,50,1,4,x,306,1
5,51,0,4,n,267,1
5,52,1,4,x,233,1
5,53,1,4,x,257,1
5,54,0,4,n,299,1
5,55,1,4,x,283,1
5,56,0,4,n,292,1
5,57,1,4,x,284,1
5,58,1,4,x,276,1
5,59,0,4,n,518,1
5,60,1,4,x,333,1
5,61,1,4,x,416,1
5,62,0,4,n,314,1
5,63,1,4,x,267,1
5,64,0,4,n,266,1
5,65,1,4,x,285,1
5,66,1,4,x,584,1
5,67,0,4,n,258,1
5,68,1,4,x,289,1
5,69,1,4,x,444,1
5,70,0,4,n,234,1
5,71,1,4,x,240,1
5,72,0,4,n,261,1
5,73,1,4,x,242,1
5,74,1,4,x,261,1
5,75,0,4,n,183,1
5,76,1,4,x,357,1
5,77,0,4,n,387,1
5,78,1,4,x,243,1
5,79,1,4,x,261,1
5,80,0,4,n,232,1
5,81,1,4,x,292,1
5,82,1,4,x,461,1
5,83,0,4,n,245,1
5,84,1,4,x,272,1
5,85,0,4,n,424,1
5,86,1,4,x,264,1
5,87,1,4,x,277,1
5,88,0,4,n,253,1
5,89,1,4,x,271,1
5,90,1,4,x,284,1
5,91,0,4,n,215,1
5,92,1,4,x,338,1
5,93,0,4,n,270,1
5,94,1,4,x,255,1
5,95,1,4,x,230,1
5,96,0,4,n,192,1
5,97,1,4,x,253,1
5,98,0,4,n,231,1
5,99,1,4,x,243,1
5,100,1,4,x,263,1
5,101,0,4,n,107,1
5,102,1,4,x,276,1
5,103,1,4,x,487,1
5,104,0,4,n,68,1
5,105,1,4,x,253,1
5,106,0,4,n,516,1
5,107,1,4,x,295,1
5,108,1,4,x,520,1
5,109,0,4,n,228,1
5,110,1,4,x,288,1
5,111,0,4,n,253,1
5,112,1,4,x,256,1
5,113,1,4,x,245,1
5,114,0,4,n,197,1
5,115,1,4,x,234,1
5,116,1,4,x,372,1
5,117,0,4,n,87,1
5,118,1,4,x,282,1
5,119,0,4,x,224,0
5,120,1,4,x,445,1
5,121,1,4,x,354,1
5,122,0,4,n,212,1
5,123,1,4,x,192,1
5,124,1,4,x,329,1
5,125,0,4,n,300,1
5,126,1,4,x,264,1
5,127,0,4,n,436,1
5,128,1,4,x,259,1
5,129,1,4,x,403,1
5,130,0,4,n,190,1
5,131,1,4,x,272,1
5,132,0,4,n,255,1
5,133,1,4,x,53,1
5,134,1,4,x,327,1
5,135,0,4,n,346,1
5,136,1,4,x,149,1
5,137,1,4,x,391,1
5,138,0,4,n,287,1
5,139,1,4,x,276,1
5,140,0,4,n,254,1
5,141,1,4,x,243,1
5,142,1,4,x,257,1
5,143,0,4,n,239,1
5,144,1,4,x,268,1
5,145,0,4,n,257,1
5,146,1,4,x,155,1
5,147,1,4,x,394,1
5,148,0,4,n,71,1
5,149,1,4,x,226,1
5,150,1,4,x,330,1
5,151,0,4,n,51,1
5,152,1,4,x,296,1
5,153,0,4,n,268,1
5,154,1,4,x,231,1
5,155,1,4,x,312,1
5,156,0,4,n,245,1
5,157,1,4,x,234,1
5,158,1,4,x,297,1
5,159,0,4,n,222,1
5,160,1,4,x,237,1
5,161,0,4,n,250,1
5,162,1,4,x,215,1
5,163,1,4,n,256,0
5,164,0,4,x,360,0
5,165,1,4,x,391,1
5,166,0,4,n,519,1
5,167,1,4,x,274,1
5,168,1,4,x,255,1
5,169,0,4,n,233,1
5,170,1,4,x,251,1
5,171,1,4,x,285,1
5,172,0,4,n,241,1
5,173,1,4,x,295,1
5,174,0,4,n,449,1
5,175,1,4,x,59,1
5,176,1,4,x,262,1
5,177,0,4,n,184,1
5,178,1,4,x,261,1
5,179,1,4,x,339,1
5,180,0,4,n,85,1
5,181,1,4,x,262,1
5,182,0,4,n,356,1
5,183,1,4,x,41,1
5,184,1,4,x,300,1
5,185,0,4,n,212,1
5,186,1,4,x,102,1
5,187,0,4,x,316,0
5,188,1,4,x,305,1
5,189,1,4,x,252,1
5,190,0,4,n,232,1
5,191,1,4,x,265,1
5,192,1,4,x,370,1
5,193,0,4,n,152,1
5,194,1,4,x,284,1
5,195,0,4,n,367,1
5,196,1,4,x,239,1
5,197,1,4,n,286,0
5,198,0,4,x,472,0
5,199,1,4,x,670,1
5,200,0,4,n,300,1
5,201,1,4,x,291,1
5,202,1,4,n,273,0
5,203,0,4,x,450,0
5,204,1,4,x,540,1
5,205,1,4,n,392,0
5,206,0,4,n,719,1
5,207,1,4,x,372,1
5,208,0,4,x,295,0
5,209,1,4,x,462,1
5,210,1,4,x,705,1
5,211,0,4,n,264,1
5,212,1,4,x,267,1
5,213,1,4,x,399,1
5,214,0,4,n,265,1
5,215,1,4,x,284,1
5,216,0,4,n,262,1
5,217,1,4,x,233,1
5,218,1,4,x,289,1
5,219,0,4,n,198,1
5,220,1,4,x,241,1
5,221,0,4,n,416,1
5,222,1,4,x,274,1
5,223,1,4,x,379,1
5,224,0,4,n,239,1
5,225,1,4,x,287,1
5,226,1,4,n,269,0
5,227,0,4,n,379,1
5,228,1,4,x,291,1
5,229,0,4,n,531,1
5,230,1,4,x,287,1
5,231,1,4,x,268,1
5,232,0,4,n,285,1
5,233,1,4,x,286,1
5,1,0,5,n,1166,1
5,2,1,5,x,487,1
5,3,1,5,n,336,0
5,4,0,5,n,477,1
5,5,1,5,x,350,1
5,6,1,5,x,406,1
5,7,0,5,n,244,1
5,8,1,5,x,256,1
5,9,0,5,n,258,1
5,10,1,5,x,236,1
5,11,1,5,x,239,1
5,12,0,5,n,245,1
5,13,1,5,x,272,1
5,14,1,5,x,269,1
5,15,0,5,n,200,1
5,16,1,5,x,204,1
5,17,0,5,x,229,0
5,18,1,5,x,277,1
5,19,1,5,x,408,1
5,20,0,5,n,241,1
5,21,1,5,x,362,1
5,22,0,5,n,285,1
5,23,1,5,x,250,1
5,24,1,5,x,249,1
5,25,0,5,n,228,1
5,26,1,5,x,211,1
5,27,1,5,n,245,0
5,28,0,5,n,317,1
5,29,1,5,x,266,1
5,30,0,5,n,273,1
5,31,1,5,x,233,1
5,32,1,5,x,245,1
5,33,0,5,n,67,1
5,34,1,5,x,315,1
5,35,1,5,n,250,0
5,36,0,5,n,350,1
5,37,1,5,x,274,1
5,38,0,5,n,488,1
5,39,1,5,x,305,1
5,40,1,5,n,346,0
5,41,0,5,n,657,1
5,42,1,5,x,323,1
5,43,0,5,n,445,1
5,44,1,5,x,312,1
5,45,1,5,x,234,1
5,46,0,5,n,179,1
5,47,1,5,x,284,1
5,48,1,5,x,294,1
5,49,0,5,n,230,1
5,50,1,5,x,274,1
5,51,0,5,x,241,0
5,52,1,5,x,443,1
5,53,1,5,x,304,1
5,54,0,5,n,263,1
5,55,1,5,x,311,1
5,56,0,5,n,725,1
5,57,1,5,x,326,1
5,58,1,5,x,608,1
5,59,0,5,n,451,1
5,60,1,5,x,318,1
5,61,1,5,x,397,1
5,62,0,5,n,259,1
5,63,1,5,x,272,1
5,64,0,5,n,234,1
5,65,1,5,x,245,1
5,66,1,5,x,287,1
5,67,0,5,n,187,1
5,68,1,5,x,293,1
5,69,1,5,x,349,1
5,70,0,5,n,175,1
5,71,1,5,x,227,1
5,72,0,5,n,238,1
5,73,1,5,x,76,1
5,74,1,5,x,270,1
5,75,0,5,n,236,1
5,76,1,5,x,258,1
5,77,0,5,n,476,1
5,78,1,5,x,244,1
5,79,1,5,x,263,1
5,80,0,5,n,202,1
5,81,1,5,x,270,1
5,82,1,5,x,303,1
5,83,0,5,n,136,1
5,84,1,5,x,65,1
5,85,0,5,n,304,1
5,86,1,5,x,241,1
5,87,1,5,n,258,0
5,88,0,5,n,452,1
5,89,1,5,x,249,1
5,90,1,5,x,444,1
5,91,0,5,n,280,1
5,92,1,5,x,846,1
5,93,0,5,n,621,1
5,94,1,5,x,586,1
5,95,1,5,x,321,1
5,96,0,5,n,244,1
5,97,1,5,x,318,1
5,98,0,5,n,583,1
5,99,1,5,x,284,1
5,100,1,5,x,233,1
5,101,0,5,n,229,1
5,102,1,5,x,151,1
5,103,1,5,x,42,1
5,104,0,5,n,175,1
5,105,1,5,x,252,1
5,106,0,5,n,268,1
5,107,1,5,x,290,1
5,108,1,5,n,328,0
5,109,0,5,n,344,1
5,110,1,5,x,285,1
5,111,0,5,n,480,1
5,112,1,5,x,383,1
5,113,1,5,x,543,1
5,114,0,5,n,248,1
5,115,1,5,x,410,1
5,116,1,5,x,271,1
5,117,0,5,n,311,1
5,118,1,5,x,317,1
5,119,0,5,x,184,0
5,120,1,5,x,414,1
5,121,1,5,x,361,1
5,122,0,5,n,274,1
5,123,1,5,x,287,1
5,124,1,5,n,572,0
5,125,0,5,n,707,1
5,126,1,5,x,590,1
5,127,0,5,n,346,1
